timestamp,accel_x,accel_y,accel_z,gyro_x,gyro_y,gyro_z
6.52459301520139,0.006077691912651062,0.0024254601448774338,9.835287094116211,0.0009927238570526242,0.0007518683560192585,0.0004784316988661885
6.5458386754617095,-34677084.0,-15432315.0,194385.90625,0.0006939019076526165,-0.0002865190035663545,-0.0006706785643473268
6.565851664636284,5.180181503295898,1.2913457155227661,8.242409706115723,-0.0004691557842306793,0.0009245512192137539,-6.51302543701604e-05
6.58521412871778,2.635810136795044,2.5799591541290283,10.60457706451416,-0.0002792270970530808,-0.00027952640084549785,0.00010718085104599595
6.605850471532904,2.5964629650115967,2.532458782196045,8.69595718383789,-0.00035176321398466825,-0.000759749673306942,0.00033178296871483326
6.62600101751741,10.250685691833496,1.3246426582336426,9.476537704467773,0.0007181380060501397,-0.0007339594885706902,0.00025907019153237343
6.643818918499164,-5.00730562210083,-0.04195214435458183,10.60769271850586,-0.0005212369724176824,-0.0009227657574228942,0.00042657164158299565
6.665417787269689,10.293066024780273,2.498981475830078,5.710552215576172,0.000772822299040854,-0.0007291498477570713,0.00011390014697099105
6.685307226027362,-5.007241725921631,-2.6199238300323486,14.475789070129395,0.0009313643677160144,-0.0007179592503234744,0.0008021427784115076
6.704020488890819,5.19455099105835,0.019927319139242172,9.962311744689941,2.8660884709097445e-05,-0.0011915488867089152,0.00038908462738618255
6.724074112833478,15.363176345825195,7.689027786254883,9.50529956817627,0.001229092013090849,-0.0005502685089595616,0.0006042906315997243
6.744132427149452,5.192586421966553,0.017746908590197563,9.985177040100098,0.0003956412256229669,-0.0004082549421582371,-0.0004293634556233883
6.765769106685184,-5.049261569976807,-3.8394007682800293,6.503134250640869,0.0002943061990663409,-0.00023892338504083455,0.00014062678383197635
6.783785347710364,-5.081512451171875,2.587278366088867,14.780948638916016,-0.0003558193566277623,0.00023196154506877065,0.00029649509815499187
6.804610232939012,-2.4925153255462646,-2.5971386432647705,9.949474334716797,-0.00013416950241662562,8.930008334573358e-05,0.0016022499185055494
6.825993990874849,0.025851288810372353,1.2405850887298584,9.854178428649902,0.00018781797552946955,-0.0006544046918861568,0.00112453056499362
6.843792775995098,5.165220260620117,2.5822010040283203,9.771984100341797,0.0005225866916589439,-0.0009553080308251083,0.00013174591003917158
6.865077929920517,5.19514274597168,-0.05998799577355385,6.37353515625,0.0007399690221063793,0.0010652568889781833,0.000816899526398629
6.885658197919838,-10.178664207458496,-2.5429606437683105,14.874054908752441,-0.0005072987405583262,-5.586977204075083e-05,0.0001675172825343907
6.9059871974168345,-5.061710834503174,-7.681140899658203,10.045276641845703,-0.0001041023206198588,0.000414884474594146,0.00024079658032860607
6.925943670445122,5.178565979003906,1.2985786199569702,9.60483169555664,0.0006591632263734937,0.0006870915531180799,-0.00018694445316214114
6.944101556087844,-7.65863561630249,-1.3080909252166748,9.989089012145996,0.0004282832087483257,0.0006118218880146742,1.0632968042045832e-05
6.96509088750463,2.565453052520752,-0.060190919786691666,5.961419105529785,0.0002652784460224211,3.423953603487462e-05,0.00020187122572679073
6.984112826525234,-5.007939338684082,-2.564436197280884,14.741354942321777,0.0006232273881323636,0.00017626558837946504,0.0001533877511974424
7.005399332731031,2.585909605026245,2.556265354156494,9.486506462097168,-0.0005031765322200954,-0.00018128477677237242,0.0006066773203201592
7.025722430669703,2.6035797595977783,2.5555498600006104,10.047252655029297,0.000833293772302568,0.00034548863186500967,0.000811856472864747
7.045378122595139,-5.06919527053833,-2.5358176231384277,9.350064277648926,0.0002721936325542629,0.00012418087862897664,1.733063254505396e-05
7.064732902334072,2.5577917098999023,0.04494587704539299,5.640593528747559,0.0004497228655964136,-0.000173482287209481,0.00023013415921013802
7.084022461553104,0.03230215981602669,0.006838675122708082,14.725456237792969,0.00018829567125067115,-0.00026005457038991153,-5.315087037160993e-06
7.103622449678369,107.5604476928711,-0.057411372661590576,10.957554817199707,0.00020970588957425207,-0.011709576472640038,0.0015393944922834635
7.124320156755857,765.5535888671875,17.921613693237305,14.774476051330566,0.0022697437088936567,-0.037056662142276764,0.0064315469935536385
7.1446431236108765,747.6644287109375,25.343910217285156,12.248590469360352,0.002947811735793948,-0.05323019623756409,0.014784244820475578
7.16469130909536,261.1892395019531,15.173381805419922,5.1594133377075195,0.0034745282027870417,-0.06035652384161949,0.023298615589737892
7.183568427921273,507.03363037109375,19.812780380249023,12.037333488464355,0.004498188383877277,-0.064324751496315,0.03039705567061901
7.203768666018732,570.980224609375,23.156625747680664,5.505016803741455,0.0037984976079314947,-0.06320187449455261,0.036307692527770996
7.223698168876581,345.6871032714844,15.675315856933594,4.4656782150268555,0.00466192327439785,-0.06051221489906311,0.04201538488268852
7.244926256942563,629.9305419921875,19.417354583740234,1.7091976404190063,0.00401467876508832,-0.05611065775156021,0.04715488851070404
7.264627002761699,-1054.8009033203125,-29.024534225463867,14.504162788391113,0.004073150921612978,-0.048546481877565384,0.05122356489300728
7.285581438685767,1154.8829345703125,35.501434326171875,-4.072596073150635,0.0035702353343367577,-0.04251130670309067,0.05493854731321335
7.303983299876563,-834.5946044921875,-24.98748779296875,16.847431182861328,0.004524458199739456,-0.034730859100818634,0.05762333422899246
7.323793811141513,1224.0570068359375,37.51505661010742,-9.29574203491211,0.004129046108573675,-0.02861189842224121,0.06013793498277664
7.343917257268913,307.32891845703125,7.4205546379089355,1.574127435684204,0.004290284588932991,-0.021762818098068237,0.059991829097270966
7.365084540215321,-949.8930053710938,-27.100595474243164,19.5866756439209,0.0029609287157654762,-0.014549854211509228,0.061736322939395905
7.384153627441265,858.0985717773438,24.502286911010742,-3.0362868309020996,0.0031319577246904373,-0.009207705967128277,0.06283361464738846
7.403931838576682,491.84771728515625,16.650434494018555,-1.3401902914047241,0.003749260911718011,-0.003508861642330885,0.06221463531255722
7.4236436852952465,-127.93025970458984,-4.542197227478027,9.758543014526367,0.0024114649277180433,0.0008871071040630341,0.06157512962818146
7.44446554442402,-125.36085510253906,-3.151109218597412,10.120504379272461,0.0020249548833817244,0.004967473912984133,0.061246778815984726
7.463655456085689,-1095.94091796875,-21.4062442779541,26.508358001708984,0.0012495205737650394,0.010868529789149761,0.060658376663923264
7.484403166803531,1288.3306884765625,26.89292335510254,-11.942432403564453,0.0015437798574566841,0.014332631602883339,0.059607140719890594
7.504426284576766,645.5134887695312,13.282279968261719,-3.9572722911834717,0.0010046041570603848,0.020759431645274162,0.057922668755054474
7.5237219237023965,-184.25108337402344,-3.9773452281951904,10.690922737121582,0.0015573753044009209,0.025462470948696136,0.056850749999284744
7.545490490854718,-117.71817779541016,-2.6099581718444824,9.328437805175781,0.0005702670314349234,0.03141958266496658,0.05346612259745598
7.564986244193278,-617.1046752929688,-9.179801940917969,17.35230255126953,0.00017934727657120675,0.03731299191713333,0.05115092173218727
7.585276581463404,686.564453125,10.849980354309082,-2.5902411937713623,-0.0008450542809441686,0.04093072935938835,0.04903971031308174
7.604954935261048,-25.463157653808594,0.6284970045089722,8.758133888244629,-2.302104257978499e-05,0.04280662164092064,0.0467153899371624
7.624748184462078,-486.4948425292969,-5.717800617218018,16.88124656677246,-0.0005564271123148501,0.04396571218967438,0.042807742953300476
7.644764589495026,502.2057800292969,7.447403907775879,1.6128042936325073,-0.0004421371268108487,0.045733436942100525,0.040577903389930725
7.666371674858965,-635.1807250976562,-7.254703044891357,15.593793869018555,-0.00029526790603995323,0.04322246462106705,0.037774816155433655
7.685789422714151,589.322998046875,6.807509899139404,6.364907741546631,-0.0016188309527933598,0.0421435572206974,0.035136908292770386
7.704080456751399,-266.3644714355469,-3.994903802871704,13.736681938171387,-0.0004551163874566555,0.04068152233958244,0.033262673765420914
7.724726727814414,348.5080871582031,4.130038261413574,6.232517719268799,-0.0012156135635450482,0.038353998214006424,0.031080909073352814
7.744898212491535,-668.5088500976562,-7.236327171325684,18.10939598083496,-0.0012949842493981123,0.03634468466043472,0.02817130833864212
7.7647789841284975,-107.41224670410156,1.9721457958221436,9.438106536865234,-0.002770553342998028,0.03175804018974304,0.026469945907592773
7.784981235745363,596.9009399414062,4.880967140197754,9.396000862121582,-0.001028960570693016,0.027157587930560112,0.02553386054933071
7.805204196949489,-399.7611083984375,-10.672133445739746,14.348363876342773,-0.0010447074891999364,0.024493684992194176,0.023564264178276062
7.8263965480728075,187.0384979248047,1.8314087390899658,9.629886627197266,-0.001114006619900465,0.019436754286289215,0.022478792816400528
7.845095624099486,220.4615936279297,4.488382816314697,9.627104759216309,-0.0011877132346853614,0.016671283170580864,0.02161257527768612
7.86565439181868,-712.362060546875,-11.55899429321289,12.920793533325195,-0.0026339918840676546,0.012943949550390244,0.019964849576354027
7.885231536929496,855.8593139648438,7.983153343200684,9.241477012634277,-0.0003240361111238599,0.010546070523560047,0.017811501398682594
7.9040197300491855,-81.81475830078125,2.6905927658081055,11.169896125793457,-0.003067642217501998,0.008195798844099045,0.01699257455766201
7.923648350988515,471.5101013183594,4.795621395111084,8.314565658569336,-0.0029782154597342014,0.006130683701485395,0.016443626955151558
7.944561972166412,358.5809326171875,-1.8027923107147217,8.563909530639648,-0.0009797157254070044,0.004816190339624882,0.014206013642251492
7.964347416185774,-2067.32275390625,-9.33581256866455,18.264482498168945,-0.0016368560027331114,0.0030685493256896734,0.013560574501752853
7.984266780200414,1865.1009521484375,7.973247528076172,3.8132436275482178,-0.0008588946657255292,0.002374401781708002,0.013323938474059105
8.005891898064874,435.7900085449219,8.028514862060547,7.8361735343933105,-0.0011558248661458492,1.6404141206294298e-05,0.012400544248521328
8.02492475823965,-748.050048828125,-4.8268327713012695,13.79699420928955,-0.0011098028626292944,0.0004730515065602958,0.010588215664029121
8.044886621297337,-819.7666625976562,-3.4468295574188232,13.366751670837402,-0.0005176039994694293,-0.0012821474811062217,0.011015916243195534
8.063829282182269,30.74982261657715,0.1883285939693451,6.9115471839904785,-0.0007706304895691574,-0.001520700054243207,0.010003110393881798
8.083711807033978,635.2756958007812,-0.6020915508270264,10.784106254577637,0.00018085428746417165,-0.002824388677254319,0.009120562113821507
8.104650153894909,799.3355712890625,2.460939884185791,6.747005939483643,-0.0007063141092658043,-0.0023646955378353596,0.009645532816648483
8.125999136944301,-440.4507141113281,2.8363704681396484,11.732623100280762,0.00044556253124028444,-0.003484297776594758,0.00881224125623703
8.145548850880004,-66.64665222167969,-2.753385305404663,10.065521240234375,-0.0003482468018773943,-0.004307125695049763,0.008614162914454937
8.16413173021283,-630.131103515625,-1.7543948888778687,9.676956176757812,0.000770354236010462,-0.005069281440228224,0.0070238420739769936
8.18392026994843,543.3955688476562,6.049867153167725,11.379613876342773,-0.0004359723534435034,-0.004215308930724859,0.005092807579785585
8.204564568004571,15.524446487426758,3.2694053649902344,9.18287181854248,0.0009494827245362103,-0.004525120835751295,0.006711243186146021
8.225772105972283,-1573.56982421875,-20.6035099029541,16.903871536254883,-0.00266407267190516,-0.004011138342320919,-0.004830577876418829
8.243597412132658,1568.8736572265625,-41.025657653808594,2.717862367630005,-0.0034756020177155733,-0.004544785711914301,-0.013395662419497967
8.264086419367231,327.0964050292969,-24.391101837158203,5.14879035949707,-0.003936403430998325,-0.003812205046415329,-0.021490758284926414
8.285585963283665,-1293.302490234375,6.923567771911621,18.589506149291992,-0.003358670277521014,-0.003190103452652693,-0.02674962393939495
8.305321945459582,319.9826965332031,-7.233630180358887,7.893580436706543,-0.0031778847333043814,-0.0029342714697122574,-0.030156288295984268
8.325024394667707,896.02001953125,-14.967243194580078,5.047119140625,-0.001865980913862586,-0.0023037241771817207,-0.03305545076727867
8.345869537559338,-1208.2672119140625,18.29636573791504,16.088232040405273,-0.0020443282555788755,-0.003354865126311779,-0.032522886991500854
8.365065029938705,33.28145980834961,-1.106482982635498,7.58671760559082,-0.0019135290058329701,-0.0031887181103229523,-0.033587902784347534
8.385308738681488,1566.8511962890625,-22.970256805419922,3.6264803409576416,-0.0012044330360367894,-0.001873863860964775,-0.03427378460764885
8.403684481862001,-583.8722534179688,0.27907609939575195,13.101639747619629,-0.0010124697582796216,-0.0025343140587210655,-0.03320721909403801
8.42370449390728,-174.13536071777344,0.16858890652656555,10.519221305847168,-0.0007028549443930387,-0.0012908575590699911,-0.03216029331088066
8.445479561924003,522.3577880859375,-6.568617343902588,6.4243903160095215,-0.00026167393662035465,-0.001413786201737821,-0.031091492623090744
8.464339098078199,-501.735595703125,5.7285308837890625,9.62486457824707,0.0004120419907849282,-0.0012520471354946494,-0.030580447986721992
8.48381027590949,481.4620666503906,-3.5536510944366455,10.64841365814209,-0.00029023963725194335,9.775767102837563e-05,-0.02956061065196991
8.504831335623749,-386.5221862792969,4.4056620597839355,11.531338691711426,0.0004448752151802182,-0.001384142437018454,-0.028109438717365265
8.524105906602927,-865.412841796875,4.567310333251953,14.386627197265625,0.0005731865530833602,-0.0005575818358920515,-0.026699699461460114
8.544342342647724,17.942852020263672,-1.7856494188308716,9.557671546936035,-0.0003144355723634362,-0.0008594745304435492,-0.025335362181067467
8.564439840032719,171.58241271972656,-0.7167351245880127,5.097170829772949,0.0009828668553382158,0.00025501649361103773,-0.024189071729779243
8.584242937038653,104.94166564941406,-3.985597848892212,13.752909660339355,0.001117740641348064,0.0006155529990792274,-0.02317752130329609
8.605284104938619,1643.75146484375,-11.216442108154297,0.3425852656364441,0.0012466595508158207,-0.001013446133583784,-0.021792486310005188
8.626593954511918,-1948.2955322265625,12.986501693725586,20.326757431030273,0.0012724264524877071,0.00026989239268004894,-0.019629230722784996
8.643727708258666,-276.3178405761719,5.541604042053223,11.485276222229004,0.0016778000863268971,0.0012736668577417731,-0.018303023651242256
8.665277877706103,1106.0211181640625,-10.330089569091797,0.9110175967216492,0.0028950413689017296,-0.0001748878858052194,-0.017463069409132004
8.684800330665894,333.0228576660156,2.228719472885132,10.909955024719238,0.0013018783647567034,0.00031655331258662045,-0.016926392912864685
8.704457334592007,389.3876037597656,3.570784091949463,7.750868797302246,0.0015021089930087328,0.000776713655795902,-0.016145387664437294
8.725661517702974,419.8464050292969,-7.283051013946533,6.82553768157959,0.0035163930151611567,0.00015024363528937101,-0.014942608773708344
8.744690519873984,-20.396486282348633,0.4639541506767273,9.373847961425781,0.0015950632514432073,0.00023741478798910975,-0.013076374307274818
8.764152740943246,-1410.7059326171875,6.625064849853516,14.511608123779297,0.0017744336510077119,0.0004849193210247904,-0.012729832902550697
8.785541368299164,522.4473876953125,-1.6167172193527222,10.622594833374023,0.002708731684833765,0.00023500501993112266,-0.012625865638256073
8.803847751230933,-814.0945434570312,2.8347909450531006,13.82536506652832,0.0017870645970106125,8.373410673812032e-05,-0.012080173939466476
8.825305858277716,1228.9063720703125,-9.238783836364746,3.042687177658081,0.001864688703790307,-0.0003341170377098024,-0.010659796185791492
8.845270717167296,102.44291687011719,0.2979021966457367,9.203041076660156,0.0014710638206452131,0.0008596049156039953,-0.009776693768799305
8.865252386662178,-1467.0833740234375,3.741791248321533,15.603262901306152,0.0026625730097293854,0.0002830618468578905,-0.009205086156725883
8.885184113518335,1362.2706298828125,-1.248152256011963,4.804714679718018,0.000984502024948597,0.00031868458609096706,-0.008260684087872505
8.904923682450317,-353.3209228515625,-0.1815260350704193,11.633508682250977,0.0018344772979617119,0.0008403387037105858,-0.007710520643740892
8.923840795527212,-15.36955738067627,-2.1441750526428223,9.416763305664062,0.0009793373756110668,0.001026018289849162,-0.007233838550746441
8.944478781311773,276.5823974609375,-0.7632285952568054,8.735882759094238,0.0010449480032548308,0.0008519156835973263,-0.007432703860104084
8.964932873728685,-1592.534423828125,5.248790264129639,16.29508399963379,0.0005028819432482123,0.0008072498021647334,-0.0067818984389305115
8.985022395499982,1608.0845947265625,-1.504097580909729,3.8377184867858887,0.0017497835215181112,0.0007523342501372099,-0.004856985528022051
9.004175479407422,-5.018088340759277,0.11000450700521469,9.683133125305176,-2.6212073862552643e-06,0.0002613899123389274,-0.005083763040602207
9.024326596525498,-1531.0994873046875,0.9116954803466797,18.084247589111328,0.0003061862080357969,0.0003030502994079143,-0.004623760469257832
9.044145122519694,422.5466003417969,0.2882758378982544,7.366652011871338,0.0010582334361970425,0.0006674412870779634,-0.004569352604448795
9.063596021733247,517.3018798828125,0.9827496409416199,3.3560967445373535,0.0007288811611942947,0.0009578272001817822,-0.0038692092057317495
9.084471841691993,1193.2138671875,-1.215519905090332,7.52486515045166,0.0013789560180157423,0.00036404866841621697,-0.004022830631583929
9.103977063088678,-158.6083984375,3.1729822158813477,10.565857887268066,0.0007688998593948781,0.0004736345144920051,-0.0036636004224419594
9.12578575394582,824.553466796875,1.2881426811218262,4.91569185256958,0.0007258323021233082,-7.206344162113965e-05,-0.00283981254324317
9.144550772733055,-2078.96435546875,5.948755264282227,21.161630630493164,0.0008857722859829664,0.0007003272767178714,-0.002128210151568055
9.165541557245888,796.3931274414062,4.569301605224609,2.3824703693389893,-1.3407145161181688e-05,-0.0005629396764561534,-0.0032369359396398067
9.184962811297737,-163.7718048095703,1.994268536567688,14.010970115661621,0.00017716072034090757,-0.0002317472972208634,-0.002951872069388628
9.206091813393869,87.13105010986328,0.8493515253067017,9.256752967834473,0.0002844364498741925,-0.0004083592211827636,-0.0028788582421839237
9.224948644521646,-929.421875,0.5747212767601013,14.984152793884277,0.0006072844844311476,-0.00024267456319648772,-0.002713782014325261
9.246230802382343,-350.71044921875,0.5447208881378174,11.71428108215332,9.249537106370553e-05,0.00035603594733402133,-0.0017148195765912533
9.265378526761197,673.4388427734375,-0.5307270288467407,1.2491660118103027,-0.00014091750199440867,0.00021078245481476188,-0.0018219652120023966
9.284466718439944,650.4020385742188,-2.6340160369873047,13.019665718078613,0.00016143351967912167,0.0005190601805225015,-0.002250382211059332
9.305867558228783,896.1990356445312,0.29818862676620483,4.523830890655518,8.528470061719418e-05,0.0004978922079317272,-0.002034936798736453
9.324382741120644,-1792.1800537109375,3.292346715927124,19.56488800048828,0.0003454013494774699,0.0001295148249482736,-0.001085558207705617
9.345898145227693,514.6494140625,-2.361863136291504,6.698768615722656,-6.987121014390141e-05,-0.00011318290489725769,-0.0011567719047889113
9.365752447280101,-33.29376220703125,-1.9048333168029785,7.390347003936768,-0.0003539296449162066,-0.00017570251657161862,-0.0005798979545943439
9.383506459067576,-271.3554382324219,0.23599737882614136,14.177156448364258,-0.0001730258227325976,0.0005287431413307786,-0.0013428163947537541
9.404444205225445,414.9076232910156,2.075247049331665,7.563910484313965,-0.00034704446443356574,0.0010531935840845108,-0.0011520860716700554
9.423553737462498,179.2678985595703,-0.9075018167495728,8.3290433883667,-0.0008477714727632701,-0.000461545423604548,-0.0015013795346021652
9.445212919614278,1224.0654296875,6.849323749542236,3.1356618404388428,-0.0005248634261079133,0.0002322252548765391,-0.0002526421449147165
9.46469154173974,-1820.3599853515625,3.51253604888916,16.763391494750977,-0.0011189813958480954,0.0005198465660214424,-0.0012869000202044845
9.485504703479819,1454.4281005859375,-0.22358588874340057,5.189326286315918,0.0007944971439428627,0.0004239489499013871,-0.0008490239270031452
9.505673082661815,-1159.9122314453125,-3.058533191680908,15.843639373779297,-1.898862683447078e-05,0.00027560206945054233,-0.0011558388359844685
9.526189812342636,-517.1255493164062,1.0864304304122925,12.572993278503418,-0.00012534004054032266,0.00041808217065408826,-0.0010894439183175564
9.5467658523703,-171.56808471679688,-1.7967159748077393,10.906010627746582,-0.0006411882350221276,2.3127446183934808e-05,-0.0006266577984206378
9.566073584021069,683.6910400390625,2.0671136379241943,2.960012674331665,-0.0004266094765625894,0.0007256022072397172,-0.00010500423377379775
9.583493382087909,-404.4779968261719,-2.3553731441497803,15.95496940612793,0.00029980146791785955,-0.0006655112374573946,-0.0008836552733555436
9.6044440822443,2048.39306640625,-1.3619389533996582,-1.7987574338912964,0.0002502045826986432,0.000514643092174083,-0.0008496392401866615
9.62466679199133,-609.2418212890625,4.1100850105285645,12.725454330444336,-0.0012487444328144193,-0.00039359857328236103,-0.0005345907993614674
9.643694621627219,-640.1812133789062,-5.484173774719238,13.433708190917969,-0.00024986162316054106,-0.000631330069154501,-0.00010623340494930744
9.665236063185148,-43.48838806152344,0.7744715213775635,7.115530490875244,-0.0005381879745982587,-0.0009868490742519498,0.0003400254063308239
9.68352339102421,10.304357528686523,-0.26512411236763,12.929228782653809,-0.0005796281038783491,9.062379831448197e-06,0.00029227399500086904
9.704287402215414,481.42889404296875,0.9333609938621521,6.897295951843262,0.00036267645191401243,0.00022683743736706674,-0.00047955254558473825
9.724807517253794,568.3575439453125,-3.378047227859497,6.403072834014893,0.00023626466281712055,-0.00017724401550367475,0.000900101731531322
9.744151127175428,-506.8503112792969,4.660467147827148,12.696442604064941,-0.00030777763458900154,5.2605741075240076e-05,0.0005826402339152992
9.76578098430764,-1705.2027587890625,-0.22797571122646332,17.755943298339844,-0.0004516281478572637,0.0011576864635571837,-0.0003292444162070751
9.783602101146244,1008.87890625,-1.5318108797073364,5.987321853637695,-0.00018639513291418552,0.00010625505819916725,9.213749581249431e-05
9.805451108026318,1239.298095703125,-0.953136682510376,2.7239952087402344,-8.401501690968871e-05,7.837135490262881e-05,0.0002317457110621035
9.82496098720003,-2355.53662109375,0.747818112373352,22.893014907836914,3.358904359629378e-05,0.00019860011525452137,-2.0961349946446717e-05
9.844360110233538,1172.7271728515625,0.37701794505119324,3.0099897384643555,0.0010041779605671763,-0.0001463264343328774,0.0007821164326742291
9.866320755216293,122.92125701904297,-1.064947485923767,6.990116119384766,0.00047279585851356387,0.000654149625916034,0.0008619247237220407
9.88427982002031,317.548583984375,-2.25935959815979,10.92027759552002,0.00039655889850109816,0.000552281504496932,0.0006454904796555638
9.903919120901264,573.5322875976562,-3.3703806400299072,6.496020317077637,1.8898150301538408e-05,0.00013775279512628913,0.0005775447352789342
9.925530765089206,542.9163208007812,4.909529209136963,6.564697265625,0.0006213957676663995,0.0004020214546471834,-0.0004884483641944826
9.94567848474253,-394.3177185058594,-2.5797932147979736,11.60442066192627,-0.00011090005864389241,-0.0005081725539639592,-0.00010496375034563243
9.964619802660309,-1264.88427734375,-3.720228672027588,14.363381385803223,0.0007080109207890928,0.0007809738162904978,-5.132633668836206e-05
9.985912931500934,1295.6571044921875,-0.7115561962127686,5.52178430557251,0.00026402907678857446,-0.0002559447311796248,-1.7370955902151763e-05
10.004342795698904,-1131.6455078125,-1.1434637308120728,15.945194244384766,0.00046672153985127807,0.0006115006981417537,0.00029846475808881223
10.025483098928817,1054.9876708984375,1.3284968137741089,3.684988260269165,-0.00042799842776730657,0.0006503246258944273,0.00039870775071904063
10.045852512936108,-1313.3787841796875,-0.1783732771873474,17.31029510498047,0.0003374145017005503,0.000741443014703691,-4.584861744660884e-05
10.064036478172056,-716.91455078125,-1.4658761024475098,11.22888469696045,-0.00032514132908545434,0.0007064635865390301,0.0003841668658424169
10.083610648405738,1520.9627685546875,1.333363652229309,4.479575157165527,0.0006606363458558917,0.00018722223467193544,0.00040647422429174185
10.105602761148475,1372.4227294921875,-0.979241132736206,1.9739744663238525,0.0009393417276442051,0.0003771117771975696,-0.0003328636521473527
10.125144140445627,-752.7044677734375,1.7645890712738037,14.099069595336914,9.230531577486545e-05,-0.00010134204057976604,0.00029871243168599904
10.143643423332833,-1577.1937255859375,-2.801558256149292,18.428775787353516,0.00012479415454436094,0.0003196557518094778,-0.00011634141992544755
10.165714203962125,145.95932006835938,-0.3071536421775818,6.655454158782959,9.0610163169913e-05,0.00034030404640361667,-0.000286192080238834
10.184029953903519,809.2933349609375,3.587017059326172,7.847602844238281,0.0004703837330453098,0.0005410962621681392,-0.0005098142428323627
10.203828832949512,752.7086791992188,-4.314119338989258,6.122281074523926,0.0005305974627844989,-6.709698936901987e-05,-0.0005305251688696444
10.226958901272155,-1569.51806640625,-1.6915968656539917,18.34238624572754,0.00032423334778286517,-2.2293359506875277e-05,-0.00025324340094812214
10.243506110622548,251.02264404296875,1.5323154926300049,8.452150344848633,-0.00018563063349574804,0.00045740773202851415,3.107987140538171e-05
10.264022219576873,583.8975219726562,1.5207661390304565,3.551816940307617,0.0006584302172996104,0.0005366851692087948,0.0006650391733273864
10.284262923640199,517.2625122070312,-2.290473699569702,9.953009605407715,-0.0002411375317024067,0.0005696439184248447,0.0009947356302291155
10.304628420737572,-168.8738555908203,1.9934536218643188,10.463390350341797,0.0005698716267943382,-0.000512775790411979,0.0003385914897080511
10.325579440337606,25.62974739074707,-3.0105154514312744,9.441906929016113,-0.00027874065563082695,0.0006633175653405488,-0.0002137011179002002
10.344017749535851,-865.3367309570312,1.3346806764602661,14.648642539978027,-7.304263999685645e-05,0.0005079917027615011,0.0002925422741100192
10.364463997888379,906.4037475585938,1.7670639753341675,1.5936810970306396,0.000647039501927793,0.0005552946240641177,-0.0005397101631388068
10.384688201011159,128.05479431152344,-2.4369618892669678,12.75975513458252,-0.0002512824721634388,0.000250355718890205,0.00033499032724648714
10.403773938887753,-2237.7099609375,3.4387760162353516,21.975114822387695,0.0002244825300294906,-0.0007860998157411814,8.379212522413582e-05
10.426142215146683,832.1956787109375,-1.3102731704711914,5.232698440551758,0.00020496919751167297,-1.8116741557605565e-05,-6.467472849180922e-05
10.445781916962005,1393.0091552734375,3.9303908348083496,2.0605030059814453,-0.00046012894017621875,-6.622816727031022e-05,-0.00016476257587783039
10.465438159764744,-425.0840759277344,-4.650327205657959,8.443817138671875,0.0006007968331687152,0.000551010831259191,-9.300548117607832e-05
10.484685238567181,-719.4185791015625,-0.20583504438400269,17.597909927368164,0.0003341294650454074,0.0009712069295346737,5.403162504080683e-05
10.505245940410532,1049.7222900390625,-3.538177251815796,3.7918529510498047,-0.00024349798331968486,-1.8962746253237128e-05,-0.0006816983805038035
10.525708187487908,184.4843292236328,4.156631946563721,8.534048080444336,-5.9135956689715385e-05,0.00044121930841356516,-0.0008093989454209805
10.545359992538579,-1205.92236328125,0.1449357569217682,16.610788345336914,0.0005510143237188458,1.0419564205221832e-05,-0.0002379170327913016
10.564894958748482,517.196044921875,-0.9123338460922241,3.1332600116729736,-0.0004521039954852313,0.0015335824573412538,-0.00018480989092495292
10.585390338790603,1055.0240478515625,2.747962236404419,8.112527847290039,0.0007976670167408884,0.0002074445364996791,-0.00015561410691589117
10.604558350867592,-302.11395263671875,-1.8347313404083252,12.020625114440918,0.0005487033631652594,0.0006001814617775381,2.456697984598577e-05
10.625234417035244,-752.8285522460938,-4.741687297821045,13.438426971435547,0.00041217863326892257,0.0006162268109619617,0.0002790603321045637
10.643991662072949,112.89313507080078,5.508819580078125,9.055096626281738,4.5478183892555535e-05,0.0006465564947575331,0.00032581278355792165
10.665204030112363,-1716.7310791015625,-0.26898878812789917,17.95254898071289,0.0003970373945776373,5.483358108904213e-05,-0.0001287452905671671
10.68397765478585,1587.433837890625,-4.931735515594482,2.8301377296447754,-0.00039398856461048126,0.00031757299439050257,-0.00294346921145916
10.705109303002246,777.7489013671875,-34.06959533691406,4.955069541931152,-0.0010641688713803887,0.00033994048135355115,-0.008862393908202648
10.724244824261405,-169.1632843017578,-14.769237518310547,11.019978523254395,-0.0015992237022146583,0.0006023752503097057,-0.012303277850151062
10.746789248543791,-1139.251953125,4.506627559661865,15.908218383789062,-0.0015085862250998616,0.00026180956047028303,-0.01559485588222742
10.76479432999622,304.6080017089844,-5.520636081695557,4.944751262664795,-0.0021096616983413696,0.00015200951020233333,-0.01731793023645878
10.785046575008892,-1200.6083984375,6.133188724517822,19.584978103637695,-0.0016467300010845065,-2.5098954210989177e-05,-0.018579870462417603
10.804683020687662,30.8273868560791,0.6794143915176392,9.565354347229004,-0.0008941104752011597,0.0016986215487122536,-0.018689338117837906
10.824367867433466,2045.38232421875,-19.701820373535156,-6.359259605407715,-0.0010509468847885728,9.646543185226619e-05,-0.018741536885499954
10.844131631427445,-455.5887451171875,5.087069511413574,19.316837310791016,-0.0009944054763764143,0.00026642531156539917,-0.01916830986738205
10.863685773336329,-924.1173095703125,7.4252824783325195,11.880546569824219,-0.0008785813115537167,-0.00018300593364983797,-0.01890481263399124
10.884960357449017,865.2935180664062,-7.37968635559082,7.649199962615967,4.0459330193698406e-05,0.0004549225850496441,-0.018261263146996498
10.905621275189333,880.6441650390625,-8.622307777404785,5.085800647735596,-0.0011605429463088512,-3.9340651710517704e-05,-0.016740689054131508
10.925414434517734,-471.0538635253906,-0.5063725113868713,12.12283706665039,0.00016619694360997528,4.233152139931917e-08,-0.017521895468235016
10.944914135499857,-5.0064215660095215,2.6320207118988037,9.530793190002441,-0.00027422053972259164,0.0003490546368993819,-0.015568665228784084
10.966023761662655,-404.4469299316406,4.591344833374023,8.142802238464355,0.0003279431548435241,0.0001119705120800063,-0.014918352477252483
10.984122987720184,-609.1656494140625,6.141776084899902,17.323001861572266,-0.0006534641142934561,-0.00011137757974211127,-0.013883931562304497
11.003859641845338,-1169.913330078125,8.7486572265625,15.771632194519043,-3.2779789762571454e-05,0.00034237868385389447,-0.014522003009915352
11.02377567871008,92.25550079345703,3.186069965362549,9.483588218688965,-3.0115770641714334e-05,-0.0005987368640489876,-0.013476228341460228
11.044612185913138,888.3695068359375,-5.536967754364014,4.646772384643555,1.599121605977416e-05,7.752320379950106e-05,-0.013413597829639912
11.063921450520866,171.59780883789062,1.5768214464187622,6.078004360198975,-0.00013288517948240042,-0.00043843541061505675,-0.011516797356307507
11.084306173142977,670.829345703125,-1.0401660203933716,9.919756889343262,0.0007223956054076552,0.0004587076837196946,-0.011521038599312305
11.106910660280846,-1095.6214599609375,5.03847074508667,15.619483947753906,0.0004115815390832722,0.000669475004542619,-0.00988632719963789
11.125838072155602,855.12255859375,-3.066127061843872,4.94575834274292,0.0010369759984314442,-0.00024350553576368839,-0.010051813907921314
11.143700607004575,-650.1658935546875,4.301912307739258,13.235904693603516,0.0005136368563398719,-0.0005644201301038265,-0.00998645182698965
11.164643471012823,1024.0567626953125,-4.812995433807373,1.36863374710083,0.00041526189306750894,-0.00013137893984094262,-0.008669810369610786
11.18500734504778,199.79200744628906,0.12735456228256226,11.782591819763184,0.0009158856701105833,0.0006462433375418186,-0.008055467158555984
11.204020497971214,-158.69947814941406,-3.170952320098877,10.621095657348633,0.0006278480868786573,0.0001570839958731085,-0.007660991512238979
11.22525534790475,1300.5938720703125,0.0892498791217804,1.8026801347732544,0.0008344622328877449,-1.0824835044331849e-05,-0.007634536363184452
11.245195992174558,-1664.001953125,1.3861799240112305,19.390485763549805,0.001018450828269124,-9.452636004425585e-05,-0.006599405314773321
11.26384343195241,-481.2650146484375,3.006192922592163,9.920061111450195,0.0003570555127225816,-0.00048706436064094305,-0.006225734483450651
11.284970580018125,1449.146484375,-1.1409063339233398,4.663912296295166,0.0017066127620637417,0.0004334025434218347,-0.005110432859510183
11.3043311011279,-281.55975341796875,-1.9908334016799927,11.400001525878906,0.0011286234948784113,0.0006735000642947853,-0.005260223522782326
11.325795379350893,184.39425659179688,3.0917892456054688,8.537983894348145,0.0004454047011677176,2.9567396268248558e-05,-0.005122335162013769
11.345145291066729,-1218.5816650390625,-0.5834214687347412,16.00642967224121,0.001002499251626432,-0.0003145697701256722,-0.004013189114630222
11.364003834896721,-92.10969543457031,0.9972695708274841,7.648219108581543,0.0012095831334590912,1.8833670765161514e-06,-0.004091533366590738
11.384796267957427,1085.514404296875,-2.837643623352051,7.675664901733398,0.0010474473237991333,0.00037114028236828744,-0.003785243723541498
11.40558229002636,297.02398681640625,-0.5788176655769348,8.163097381591797,0.0009112565312534571,-0.0003625173703767359,-0.0032058143988251686
11.4265476873843,-1797.114013671875,2.663144111633301,19.366321563720703,0.0003056868154089898,0.0002723759098444134,-0.0027270177379250526
11.443809551303275,890.9774780273438,0.6792625784873962,5.083948612213135,0.0006978125311434269,-0.0004721961449831724,-0.0036947184707969427
11.463872422813438,-1128.9615478515625,1.7378710508346558,13.7146577835083,0.0006946572102606297,-0.00021669756097253412,-0.0035854820162057877
11.484581931727007,1682.0677490234375,2.7055768966674805,2.9941773414611816,-0.0002229324891231954,0.0007641239790245891,-0.0022182846441864967
11.50480755767785,-271.2997131347656,0.30093660950660706,11.261234283447266,0.00035665236646309495,-0.0004795005079358816,-0.0024478991981595755
11.524626053869724,-163.81594848632812,0.383009135723114,10.545316696166992,0.0005508992471732199,0.00019409001106396317,-0.0020066567230969667
11.545327437808737,-924.1539916992188,0.672834038734436,14.764277458190918,0.0002955796953756362,0.00021310130250640213,-0.0021019296254962683
11.5664110846119,545.2659301757812,-1.8352426290512085,2.725224494934082,0.0009253994794562459,0.0006194337038323283,-0.0011392469750717282
11.585729847778566,1024.02734375,-0.29323190450668335,9.951804161071777,0.00046061581815592945,-0.0006407479522749782,-0.0015687323175370693
11.604657791671343,-158.7025909423828,-0.9057626724243164,10.385929107666016,0.0007450327393598855,0.0005735008744522929,-0.0008039018721319735
11.624809088534676,373.85748291015625,1.2539770603179932,7.106497287750244,-6.401658174581826e-05,-0.0003727081057149917,-0.001419493812136352
11.644188284524716,-542.7652587890625,-7.215014457702637,12.754863739013672,0.0005138272535987198,0.0006099662277847528,-0.0016483986983075738
11.666020659613423,128.0723419189453,2.5881905555725098,5.37209415435791,0.00031380439759232104,0.0008524312870576978,-0.0013768376084044576
11.683985635521822,-1418.2047119140625,0.29140883684158325,21.210208892822266,0.0005678340094164014,0.00032763139461167157,-0.0013627761509269476
11.703634475008585,1443.9620361328125,3.2786829471588135,1.945551872253418,0.00019868653907906264,0.00028944690711796284,-0.00034724135184660554
11.725152342929505,629.8638916015625,1.3074547052383423,6.0038065910339355,-0.0003838908742181957,0.000709981715772301,-0.00044226442696526647
11.744701156043448,-1505.329833984375,-4.023066520690918,18.062549591064453,-8.92139069037512e-05,0.0003828898770734668,-0.0008626477792859077
11.763975675799884,-1262.1063232421875,-1.3807685375213623,15.211179733276367,0.000540063891094178,-0.0002821908856276423,-0.0003680845838971436
11.783937378786504,1554.11279296875,-0.278622031211853,2.994953155517578,0.001214679330587387,0.0001833395508583635,-7.199781248345971e-05
11.803653293987736,-158.73414611816406,-3.5447885990142822,10.26363754272461,3.2875068427529186e-06,0.00042642728658393025,-0.0007223974680528045
11.823923111660406,834.5914306640625,-3.245710611343384,5.269663333892822,0.00042627594666555524,-0.0002548412885516882,-0.0010885363444685936
11.843689500587061,-86.91947174072266,0.9243012070655823,10.107967376708984,-0.0001068183482857421,0.0010145483538508415,-0.0008001873502507806
11.86535702738911,2299.086669921875,7.751474857330322,-8.216208457946777,0.0005071211489848793,0.0014057131484150887,-0.0012441412545740604
11.885423055384308,-1981.4119873046875,-0.7037240266799927,26.674129486083984,0.0006834649248048663,0.0006011713412590325,0.00033500813879072666
11.904509915737435,-1443.84228515625,-0.9878583550453186,17.522619247436523,-0.0001031716528814286,-0.0006036072154529393,-0.00036961084697395563
11.92381803994067,880.75390625,1.4501030445098877,4.680405139923096,-0.0009255533223040402,-0.0003291169414296746,-0.0007008514949120581
11.944175160955638,-46.070926666259766,-4.6569719314575195,10.187172889709473,0.00022986983822192997,0.0002447951992508024,-0.0004710171779152006
11.964798338478431,71.71564483642578,-1.9593451023101807,6.205001354217529,-0.0008435765048488975,-0.00019847185467369854,0.00044943811371922493
11.9846837494988,-153.47012329101562,1.5454564094543457,14.3112154006958,0.000184034593985416,0.0005410854355432093,3.338741953484714e-05
12.004206052515656,41.05558776855469,4.7220940589904785,9.343730926513672,0.00026697287103161216,0.00032437528716400266,0.00015841303684283048
12.02475916966796,419.95623779296875,3.513185739517212,7.0844407081604,-0.0006641390500590205,0.00011124900629511103,-0.0001962607348104939
12.045316224452108,-975.3601684570312,-1.9305591583251953,15.290792465209961,-6.775007932446897e-05,0.0004889625706709921,-0.0007323267636820674
12.06524863280356,-381.3287048339844,3.777678966522217,9.569631576538086,-0.00030009925831109285,-0.00021077506244182587,-0.0007696843822486699
12.085756254848093,1351.811279296875,-0.546931803226471,5.203596115112305,-0.00042686003143899143,-0.00057951919734478,-0.000458977825473994
12.105727435555309,-435.1942443847656,-4.682006359100342,12.142499923706055,0.0011682735057547688,0.00022091568098403513,-0.0006263397517614067
12.125447087688372,-1331.14013671875,2.853740692138672,17.212127685546875,-0.00018437125254422426,0.0010863508796319366,-9.091038373298943e-05
12.144265085924417,2278.516357421875,-1.9186155796051025,-3.1969103813171387,0.0003679999790620059,0.0008583164308220148,-0.0001622521667741239
12.165459650568664,-1541.0916748046875,4.924063205718994,16.16611099243164,-1.3074495655018836e-05,-0.0002888230956159532,0.00041747873183339834
12.185350841609761,-245.75413513183594,-0.13451869785785675,13.18543815612793,2.1286497940309346e-05,0.0003281369572505355,0.0005757038597948849
12.204176404280588,629.9247436523438,1.5020655393600464,6.258726119995117,4.076107870787382e-06,-0.00020393833983689547,-0.00012659384810831398
12.22527544037439,271.3680114746094,-5.26410436630249,7.872483253479004,3.0502786103170365e-05,-7.856870070099831e-07,-0.0002929976908490062
12.244564868276939,117.81138610839844,-3.6819021701812744,9.276369094848633,-0.0005868633161298931,-0.0009711007587611675,-0.000475228123832494
12.263493363047019,-716.7879638671875,0.6665263772010803,11.222807884216309,0.00021924903558101505,-0.0002542456495575607,-0.00023373706790152937
12.285253233043477,1070.226806640625,3.5762417316436768,6.976127624511719,0.00079207809176296,0.00043017446296289563,-0.0005004664999432862
12.30362835410051,-1425.9176025390625,2.462984323501587,17.689306259155273,-7.534926407970488e-05,0.00033281109062954783,0.0009812827920541167
12.32536807586439,1080.4603271484375,-2.873889923095703,3.5882654190063477,0.000558272993657738,0.0005525859305635095,-0.0003346250159665942
12.345063492888585,-527.2803344726562,0.051563236862421036,12.680336952209473,3.2092691981233656e-05,0.00023409303685184568,0.0003079984453506768
12.365409041987732,-1244.123779296875,0.6044443249702454,14.907729148864746,0.0007959833601489663,-3.9622580516152084e-05,-0.00027000613044947386
12.38503124192357,1118.827880859375,1.8737804889678955,5.9397101402282715,-4.330933734308928e-05,0.00113007053732872,-0.0007524865213781595
12.405346284853294,335.4294738769531,3.150522232055664,7.6806135177612305,-0.0004312863457016647,2.4931214284151793e-06,0.0005171812372282147
12.424195040017366,-460.7710876464844,-1.9283705949783325,12.46019458770752,0.0005622429307550192,0.0002786708646453917,0.00011422651004977524
12.444050495047122,35.9005241394043,2.162154197692871,9.425665855407715,-0.0005411864258348942,0.00024100940208882093,-0.0007246800232678652
12.463521712692454,-550.4713134765625,-1.0787277221679688,8.68514347076416,0.0005571339279413223,-0.00024217228929046541,0.0006214849418029189
12.486112362705171,901.2550048828125,2.7127039432525635,9.748163223266602,0.0008695879951119423,-0.0002665809588506818,-0.0002220247988589108
12.504306777846068,-1295.356689453125,-1.460602045059204,16.685117721557617,0.0005164692411199212,-9.947454964276403e-05,-0.00047536956844851375
12.525567675707862,1733.2677001953125,3.6377434730529785,0.21296724677085876,0.0002343776577617973,0.0008172892848961055,0.0004152155015617609
12.545406049117446,-988.127685546875,-0.6508749127388,15.025816917419434,0.00019730206986423582,0.0009829705813899636,-0.0006173435249365866
12.564000689657405,-1285.0980224609375,-0.28502947092056274,15.142621040344238,0.0010159059893339872,0.0007561754318885505,-0.0006901236483827233
12.583720311522484,1349.17578125,-1.5633962154388428,4.4873433113098145,4.5349966967478395e-05,0.00015046921907924116,0.0003595955204218626
12.603592347353697,363.6007995605469,0.3394917845726013,7.531834602355957,0.0004327220958657563,-0.0005242882180027664,0.0004715498071163893
12.623507433570921,-125.44942474365234,-0.03130017966032028,10.21983528137207,0.0008677026489749551,0.00014325379743240774,-0.0007793729309923947
12.644574219826609,578.6713256835938,0.7655760049819946,6.297974586486816,-0.0004429756081663072,0.0005580565775744617,-0.00036207307130098343
12.663840634282678,-1881.6185302734375,-1.6162594556808472,17.78663444519043,0.0005369350546970963,0.0003167641698382795,4.6997301978990436e-05
12.68550580716692,1528.403076171875,-0.7125978469848633,4.593221187591553,-0.0009317755466327071,0.0002579739666543901,0.0003402986330911517
12.704893549671397,-1561.50634765625,3.5760951042175293,17.889991760253906,7.859182369429618e-05,0.00038334139389917254,-0.0010612522019073367
12.725702694617212,1049.7236328125,0.02734903246164322,3.7938663959503174,0.0007442043861374259,-0.0007800847524777055,0.00016324598982464522
12.74361057416536,-222.5800323486328,2.1785495281219482,11.322482109069824,0.00018153255223296583,0.0007580036763101816,0.00029566744342446327
12.765109126456082,555.5916748046875,-1.537514567375183,3.78762149810791,0.0004919873899780214,4.647660534828901e-05,0.00039352255407720804
12.784076964715496,204.90060424804688,-1.989818811416626,12.334723472595215,0.00041083889664150774,3.7068166420795023e-05,0.00038324875640682876
12.80355508485809,-263.59283447265625,2.5606472492218018,10.964406967163086,-0.00020011942251585424,0.00042910256888717413,0.0004837606684304774
12.824989457149059,1141.8818359375,-0.8598275780677795,3.260434627532959,-0.00019286086899228394,0.00017636809207033366,0.0006084208143875003
12.847008580807596,-1633.3521728515625,-2.1436545848846436,18.766952514648438,0.0004994532791897655,0.000954247429035604,0.00012669067655224353
12.864850506652147,-291.76861572265625,0.23185840249061584,8.953511238098145,-0.0008335111197084188,0.0010328928474336863,-7.951410952955484e-05
12.88567979936488,1231.4794921875,-1.6805378198623657,5.988059997558594,-0.0003058980219066143,0.0010583533439785242,0.0005221549654379487
12.90374862914905,-896.0132446289062,-0.3059768080711365,14.675383567810059,-7.73774809204042e-06,0.0008313748403452337,0.0013478945475071669
12.92538149189204,1466.9913330078125,-1.3858131170272827,1.3439710140228271,0.0010487197432667017,-9.750681056175381e-05,0.00040618792991153896
12.943709075218067,-563.1847534179688,-2.20426082611084,13.261587142944336,-0.0005126805044710636,-0.0001553243782836944,0.0003185001260135323
12.96438963059336,-770.4949951171875,4.871614456176758,10.257960319519043,0.00048547901678830385,0.0003748232265934348,-0.0005154198734089732
12.985205257544294,332.8730163574219,-1.9783347845077515,11.849116325378418,0.000358984456397593,4.1979525121860206e-05,0.0006346907466650009
13.00466367136687,440.431640625,2.0968379974365234,6.748513221740723,-4.7028312110342085e-05,0.00046040909364819527,0.0007643142598681152
13.024228503229097,-591.2369995117188,1.8693665266036987,13.522805213928223,0.0011696240399032831,0.0008421703241765499,0.0009317597723565996
13.04593579552602,455.7874450683594,3.303300380706787,6.983160495758057,-0.00010031620331574231,9.732463513500988e-05,0.00036273125442676246
13.065858115092851,-127.94088745117188,1.1589007377624512,7.846981525421143,-5.5267009884119034e-05,-0.00040322780841961503,0.00040530419209972024
13.085957704926841,238.14845275878906,-3.58188796043396,11.62087345123291,0.0006682202219963074,-0.00026967882877215743,-0.00027040758868679404
13.104673653258942,-220.09996032714844,-1.7337682247161865,10.985610961914062,0.0011225673370063305,0.00012426319881342351,0.0003072777471970767
13.12437844730448,250.9382781982422,2.6942191123962402,8.008628845214844,0.0006395428790710866,5.514550139196217e-05,-3.572265268303454e-05
13.14391442516353,-529.924072265625,-6.483451843261719,12.294707298278809,-0.00013405756908468902,0.000858861196320504,-0.0032084709964692593
13.16633766319137,570.8570556640625,-10.523824691772461,3.8739631175994873,-0.0009671174339018762,-0.00018668606935534626,-0.0059928749687969685
13.18356222694274,-1408.004150390625,-0.8080716133117676,21.17115020751953,-9.567220695316792e-05,-0.0004502003430388868,-0.006861225701868534
13.205569017794915,1036.86962890625,-4.513710975646973,3.6801977157592773,-0.0011057420633733273,0.001013456960208714,-0.007474059239029884
13.226183419465087,220.21559143066406,-2.018369436264038,8.609991073608398,-0.0017048900481313467,0.0006502093747258186,-0.008070895448327065
13.245822359458543,-1262.0162353515625,8.676816940307617,16.643814086914062,-0.0006530877435579896,0.00013227795716375113,-0.009130877442657948
13.263911948888563,473.6558837890625,-0.31505849957466125,4.039017200469971,-0.0012538996525108814,0.0005966115859337151,-0.00836800318211317
13.28574250114616,2288.70458984375,-9.28233528137207,1.976913571357727,-0.00017281156033277512,0.0005448185838758945,-0.008930390700697899
13.306262877187692,-2316.701904296875,6.4510369300842285,22.204254150390625,0.0006649941788055003,0.00018894759705290198,-0.008381173945963383
13.324243482085876,716.8742065429688,-0.7536051869392395,5.862760543823242,-0.0004064544918946922,0.0008070687763392925,-0.009098454378545284
13.34621661005076,-12.74594783782959,0.1338275671005249,9.157230377197266,-0.0004386944347061217,0.002346055582165718,-0.009081723168492317
13.364376800251193,-171.48936462402344,-3.8135745525360107,7.947263240814209,-0.0005586924962699413,0.00357908196747303,-0.009129493497312069
13.38538918539416,427.6341552734375,4.359597206115723,9.1534423828125,0.0005928777391090989,0.006042173132300377,-0.007949182763695717
13.405974863446318,10.271060943603516,1.1834173202514648,8.439327239990234,-0.00012709795555565506,0.009784974157810211,-0.008000818081200123
13.423829853651114,-394.2529602050781,0.2924988865852356,10.621294975280762,0.0010550545994192362,0.011670283041894436,-0.006549167912453413
13.444928268552758,-140.7379913330078,-4.147143363952637,9.114153861999512,2.3128639440983534e-05,0.013686464168131351,-0.005920763127505779
13.46496853872668,-857.5425415039062,2.192495822906494,11.510058403015137,0.0002721405471675098,0.017068656161427498,-0.006049204617738724
13.485199674847536,865.2803955078125,-6.036108493804932,6.317770481109619,0.000416672439314425,0.019146399572491646,-0.006146950181573629
13.506196810980327,-670.7357177734375,2.0276358127593994,12.21334457397461,0.0007271532085724175,0.020348744466900826,-0.005099765490740538
13.525968068861403,368.68011474609375,-2.532641649246216,7.043085098266602,0.0009889621287584305,0.022184254601597786,-0.004323760978877544
13.544450250570662,-609.3201293945312,-2.2904226779937744,12.477973937988281,0.0008373242453671992,0.02153703384101391,-0.0032151122577488422
13.564336011768319,-458.2003173828125,5.658554553985596,8.483428001403809,-0.0004743277095258236,0.022753404453396797,-0.004650520626455545
13.583786640898325,181.7456512451172,-1.2370721101760864,12.333162307739258,0.000604684348218143,0.021360203623771667,-0.002939078724011779
13.605295331799425,512.0247192382812,-2.0455667972564697,7.6055426597595215,0.0001278255949728191,0.020719120278954506,-0.0033037520479410887
13.624492858652957,-670.7176513671875,1.7402291297912598,11.914039611816406,-5.172844976186752e-05,0.019148193299770355,-0.00359926326200366
13.645329054561444,25.605039596557617,-0.18391090631484985,9.89923095703125,0.0007501442451030016,0.018708746880292892,-0.0028328581247478724
13.664561906713061,-865.3430786132812,-2.2126619815826416,9.981709480285645,0.0006022397428750992,0.01634238287806511,-0.0021728684660047293
13.686340962653048,281.5840759277344,0.7724014520645142,11.780990600585938,0.0008444051491096616,0.016091857105493546,-0.001170795876532793
13.703900060732849,-517.1668090820312,-3.1465489864349365,11.156768798828125,0.0004936319310218096,0.013996651396155357,-0.002176327630877495
13.724060234730132,-58.89921951293945,-0.8943327069282532,10.257564544677734,0.0008091543568298221,0.011563311330974102,-0.0014545259764418006
13.744720962713473,276.45965576171875,-4.229145050048828,9.61771297454834,0.000943607185035944,0.010640338063240051,-0.001548472442664206
13.763975024339743,-527.4181518554688,3.236365556716919,8.079524040222168,-0.0003127938834950328,0.009720010682940483,-0.0012164181098341942
13.78481090918649,-51.212059020996094,-0.9830117225646973,13.287753105163574,9.965102071873844e-05,0.007071324624121189,-0.0022519510239362717
13.80606979422737,0.026202213019132614,3.8093934059143066,10.011148452758789,0.00019622608670033514,0.0058000641874969006,-0.0004943616804666817
13.824778849375434,-235.49563598632812,4.003340721130371,10.398372650146484,0.0007401695474982262,0.004286305978894234,-0.001221235143020749
13.844234447577037,-41.001380920410156,-1.0273487567901611,10.110193252563477,0.00048394137411378324,0.0031436006538569927,0.0005158457788638771
13.865883761434816,-314.8849792480469,-0.6710422039031982,7.115730285644531,0.0006591590354219079,0.0005584332393482327,-0.000992284156382084
13.885406885412522,5.107792854309082,-1.237788200378418,13.723207473754883,0.0007251271745190024,0.0020472505129873753,-0.0007523623062297702
13.90540081972722,-320.0697326660156,-0.6552462577819824,9.614067077636719,0.00038599592517130077,-0.0015422338619828224,0.0007245588931255043
13.924225379596464,94.71090698242188,-0.5712490081787109,10.149055480957031,0.0006530551472678781,-0.0008250379469245672,-0.0005745812086388469
13.945846651564352,-61.43579864501953,2.955367088317871,10.052509307861328,0.0007479379419237375,-0.0019073027651757002,-0.0013687729369848967
13.966104687307961,-535.0715942382812,-3.186290979385376,1.70256769657135,0.0003137210151180625,0.02671569585800171,0.0012588087702170014
13.983484200318344,-565.807373046875,0.8318452835083008,9.296578407287598,0.0005355329485610127,0.020804433152079582,7.646613812539726e-05
14.006033413344994,-5.157168388366699,-1.2683230638504028,9.452430725097656,4.971043381374329e-05,0.009675711393356323,0.0007605388527736068
14.024022634141147,20.409866333007812,2.4364442825317383,14.150430679321289,0.0006652704905718565,0.003774172393605113,7.62901472626254e-05
14.045254718977958,5.112025737762451,0.5733935236930847,11.55636978149414,0.0007187783485278487,-0.003702841466292739,0.000532289210241288
14.06652208021842,5.111896991729736,1.2109770774841309,9.889761924743652,0.00015820714179426432,-0.008634822443127632,0.0009782130364328623
14.084707907866687,-0.06355948001146317,-2.58058762550354,13.160646438598633,0.0009309346787631512,-0.013211514800786972,-0.00033313134917989373
14.103848106926307,10.209165573120117,1.2018461227416992,12.77053165435791,0.0005176273989491165,-0.01770440861582756,-0.0002143959136446938
14.124735669000074,-0.01845400035381317,-2.535832643508911,10.739838600158691,2.2173771867528558e-05,-0.020143350586295128,-0.0005677774315699935
14.144077786011621,-2.6009225845336914,-1.3229460716247559,10.01640510559082,0.0003393777005840093,-0.022073298692703247,-0.0004067866539116949
14.164871982997283,-5.09248685836792,1.3192226886749268,5.572500228881836,-0.00015483352763112634,-0.024182841181755066,-0.0003231149457860738
14.1850052960217,7.671396255493164,-1.3265395164489746,16.243871688842773,0.0003528323140926659,-0.02444455772638321,0.0005597607232630253
14.205064933281392,15.318611145019531,1.2019275426864624,10.698007583618164,0.0006679316866211593,-0.025003619492053986,0.0005523856380023062
14.225739877438173,-12.729698181152344,0.08625002950429916,6.585967063903809,-0.0005781629588454962,-0.02496165595948696,0.0008172669913619757
14.24404883524403,-2.56538462638855,-1.261622667312622,10.09172534942627,-0.00014176568947732449,-0.02514185756444931,-0.00024886842584237456
14.265636073192582,-5.102355480194092,-3.8662705421447754,8.22007942199707,5.369358405005187e-06,-0.02362249791622162,0.0004503407690208405
14.286058085272089,-2.5412538051605225,0.010191718116402626,12.529417037963867,-0.00015329112648032606,-0.022987430915236473,-0.00023042125394567847
14.304710545111448,5.158111095428467,1.2804973125457764,9.1764497756958,0.0005744947702623904,-0.021192919462919235,0.0008214782574214041
14.324695932213217,-5.0666327476501465,-2.5338966846466064,10.647093772888184,-0.00015877156693022698,-0.019865525886416435,0.0003033949469681829
14.344431031960994,-5.087704658508301,0.02815628983080387,8.2626953125,-1.3982375094201416e-05,-0.01928509771823883,0.0012197495670989156
14.365698844427243,-10.164400100708008,0.05575127527117729,5.301631927490234,0.0005290850531309843,-0.017059501260519028,0.0010587438009679317
14.384094814537093,-5.044030666351318,0.03422340750694275,13.380473136901855,-7.126036507543176e-05,-0.016042586416006088,0.0003598349285311997
14.405629033688456,0.026036333292722702,2.575242280960083,9.539572715759277,0.0010188688756898046,-0.01408805139362812,-0.0008755858289077878
14.425641511334106,-5.109157085418701,-1.252248764038086,7.752209663391113,-0.00012768933083862066,-0.013462306931614876,0.0008579738205298781
14.44445983064361,5.185749053955078,-2.61995267868042,9.512980461120605,-0.0005585381295531988,-0.010412009432911873,0.0013198591768741608
14.46551298093982,-0.004144914448261261,1.3023399114608765,5.547510147094727,0.0005901867407374084,-0.008705265820026398,-0.0008181010489352047
14.484457886079326,15.402066230773926,5.013359546661377,11.947149276733398,0.0012113219127058983,-0.008048825897276402,0.0004528831341303885
14.504298123065382,10.368402481079102,2.5027871131896973,9.204891204833984,0.00046227843267843127,-0.0060749351978302,0.0005478541133925319
14.525081650121137,10.350370407104492,2.512011766433716,9.694494247436523,-0.00021128376829437912,-0.005213373340666294,0.0007386718643829226
14.54544993210584,-5.1393842697143555,0.04624442756175995,8.331255912780762,-0.00013807856885250658,-0.003625701181590557,-0.0003517137956805527
14.563723563682288,0.04681169614195824,2.529862642288208,6.5218186378479,0.00014192213711794466,-0.0032350406982004642,0.0007901558419689536
14.587264167610556,-5.0681233406066895,-1.2012200355529785,12.202606201171875,-0.00034755468368530273,-0.0025774817913770676,0.00023411949223373085
14.60369172366336,-2.447448492050171,-1.2728266716003418,9.89754581451416,0.0009925481863319874,-0.0010310517391189933,-0.00104820157866925
14.624307407764718,5.172017574310303,1.2757636308670044,9.490571975708008,3.697873034980148e-05,9.238960046786815e-05,0.0004965513944625854
14.644552881130949,5.139784336090088,0.01889689825475216,9.228827476501465,-0.00036343012470752,0.001198078622110188,0.0002940672275144607
14.665706128813326,-10.219968795776367,-1.2966029644012451,6.555437088012695,-3.7216232158243656e-05,0.0013763902243226767,6.063358159735799e-05
14.683903428027406,15.45616340637207,4.998732089996338,12.792314529418945,0.00029189427732490003,0.0016864516073837876,-0.00019120093202218413
14.705238785827532,-10.15430736541748,0.0805869922041893,9.549088478088379,0.0007533127209171653,0.0019915024749934673,-0.0002998468407895416
14.725133885163814,-2.520942211151123,-1.2985607385635376,9.521598815917969,-6.680545629933476e-05,0.0018678575288504362,4.89275116706267e-05
14.74446760583669,0.022381793707609177,1.285839557647705,9.624274253845215,2.4925131583586335e-05,0.0004781082388944924,4.716299008578062e-05
14.764126262860373,5.181282043457031,1.2800568342208862,7.639163017272949,0.0005753067671321332,0.0008742125355638564,0.0004468830884434283
14.786081027239561,2.604203701019287,-0.02892368659377098,12.1406831741333,-5.547053297050297e-05,0.0009571337141096592,-0.0002936751116067171
14.805266511393711,2.6018264293670654,2.5485126972198486,9.921954154968262,0.0006389732589013875,0.001520759891718626,0.0006109196110628545
14.824866980314255,5.219430923461914,-0.02013489603996277,9.66425895690918,-0.00032859810744412243,0.001347565557807684,3.2609154004603624e-05
14.843769987346604,-5.055529594421387,-1.2439358234405518,8.5846529006958,6.001208384986967e-05,0.0017670206725597382,0.00041539999074302614
14.865441302070394,5.125547409057617,1.2425683736801147,7.823939800262451,-0.0011589903151616454,0.0026556584052741528,0.0005542526487261057
14.884480542736128,2.68458890914917,2.577913522720337,13.016571044921875,0.0009479452855885029,0.0017028676811605692,0.0012275871122255921
14.903876069001853,2.6458094120025635,1.208096981048584,10.050299644470215,0.0014833578607067466,0.0026332708075642586,7.819733582437038e-05
14.925785066792741,2.6023917198181152,1.3162238597869873,9.594863891601562,-0.0005340318894013762,0.0020599986892193556,0.0011482078116387129
14.945905576460063,7.806321620941162,3.7227673530578613,9.605596542358398,0.0007176688523031771,0.0013705354649573565,0.0006280603120103478
14.963828133651987,2.6016557216644287,2.5999770164489746,6.126407623291016,0.0015066477935761213,0.002879622858017683,0.00017719478637445718
14.985066960798576,-7.566345691680908,-2.469510555267334,13.554577827453613,-4.5667708036489785e-05,0.0021214913576841354,0.0001224081206601113
15.005031038774177,2.5901129245758057,-0.02560516446828842,9.659952163696289,0.00040554304723627865,0.0020695177372545004,-0.000448249455075711
15.02354399766773,0.06176988407969475,1.2653837203979492,10.044825553894043,0.0008126185275614262,0.001661618473008275,0.00022884320060256869
15.045404013479128,7.736320495605469,2.5235071182250977,9.39194107055664,-0.00026241669547744095,0.002540434245020151,-0.0004661179264076054
15.063798680901527,2.6007204055786133,0.008944405242800713,7.217362403869629,0.000772179919295013,0.0019695016089826822,0.0003474340483080596
15.085164815653116,-2.470365285873413,-0.009830407798290253,13.077259063720703,-0.00020856462651863694,0.0009856887627393007,0.0003095892316196114
15.104702517623082,10.30625057220459,1.2010393142700195,9.513071060180664,4.785897908732295e-05,0.0010556153720244765,-0.00046010385267436504
15.125277154846117,10.338736534118652,5.068068027496338,9.573660850524902,0.00037317248643375933,0.0009809733601287007,0.0008331089047715068
15.145684820832685,15.404034614562988,5.003612995147705,9.586377143859863,0.0006589972181245685,0.001857758848927915,-0.0004520942165981978
15.165174041874707,5.181936740875244,3.781872272491455,7.481945991516113,0.0008469837484881282,0.00023949204478412867,-6.837336695753038e-05
15.184823291841894,-7.623103618621826,-1.2315194606781006,12.158122062683105,-3.548970562405884e-05,0.00034815340768545866,-0.00018518566503189504
15.205290528712794,5.186331748962402,1.217917561531067,9.633374214172363,-0.000822434900328517,0.00015361032274086028,-2.4119726731441915e-05
15.22485658340156,5.20129919052124,1.2606513500213623,9.860803604125977,-0.0010677274549379945,3.225063846912235e-05,-0.0002114740782417357
15.24380377237685,0.08669610321521759,-0.029010551050305367,9.93858814239502,-7.224878936540335e-05,-3.166013630107045e-05,0.000730370229575783
15.26608744985424,10.386987686157227,5.040937423706055,7.154964923858643,0.0009554882999509573,-0.0002982770383823663,0.001398752792738378
15.283562150783837,10.336077690124512,5.035632610321045,12.82064151763916,0.0004706124309450388,-0.0005117213586345315,2.0447783754207194e-05
15.305477760965005,0.0593155212700367,2.5912299156188965,10.297367095947266,0.0002120162534993142,-3.974101855419576e-05,-6.651219155173749e-05
15.32510171411559,10.342724800109863,3.80918550491333,9.533468246459961,0.00042573193786665797,7.211508636828512e-05,0.0006105517968535423
15.344480249099433,5.206539154052734,-0.023881496861577034,9.496941566467285,-0.0004857281455770135,0.0001520261139376089,0.0005208707880228758
15.36455219774507,2.567568302154541,1.2571830749511719,6.6394147872924805,-0.00046123331412672997,0.00016836298163980246,-1.0300878784619272e-05
15.384765480645001,5.213418483734131,2.474538803100586,13.591707229614258,-0.0005130188073962927,2.4137843865901232e-05,-0.00035663170274347067
15.405896956566721,0.02448153868317604,-0.05333516746759415,9.678389549255371,0.00010132000170415267,-7.863627979531884e-05,0.0007454004953615367
15.424364891136065,-5.054839134216309,-1.2581748962402344,9.324145317077637,1.2548684026114643e-05,0.0005452429759316146,-0.0007754036341793835
15.445336129399948,0.10113881528377533,3.8732516765594482,10.163684844970703,0.0002954360097646713,0.00021805039432365447,0.0007717699627391994
15.465326135628857,-10.266668319702148,-3.8397419452667236,7.414433479309082,0.0004963546525686979,0.000716585258487612,0.001142097171396017
15.484827940468676,5.179388046264648,5.033681869506836,12.566699028015137,1.2306249118410051e-05,0.00024812924675643444,-4.4694257667288184e-05
15.504477290436625,-5.116766452789307,-1.2622039318084717,9.186060905456543,0.0006324831629171968,-8.660776074975729e-05,0.0005857539363205433
15.523969557136297,5.180668830871582,2.549124240875244,10.130619049072266,0.001050424762070179,0.000938196259085089,-0.0008709856774657965
15.546860448084772,2.560617208480835,0.6553515791893005,9.133389472961426,0.0009670865256339312,-4.812557017430663e-05,-0.0001669461780693382
15.564315641764551,-2.5612263679504395,-0.6520962119102478,10.062198638916016,-0.0002559279091656208,0.00034607748966664076,0.0006602203939110041
15.584902703063563,2.670283317565918,-0.028772547841072083,11.206459999084473,-0.0003879040013998747,0.00034705872531048954,-0.0004979404620826244
15.607092816149816,-2.525282382965088,-2.530630588531494,9.146984100341797,-4.7581634134985507e-05,0.00038902153028175235,0.000634316704235971
15.626274443231523,-5.072603702545166,0.04471077024936676,9.66800594329834,0.0007382399635389447,3.954373823944479e-05,-1.0431846021674573e-05
15.644235682208091,5.204089641571045,2.5362274646759033,9.728032112121582,0.0008618127321824431,0.0005882435361854732,0.00021889235358685255
15.66789937694557,1.3076788187026978,1.3450214862823486,7.806353569030762,0.0002645612694323063,6.340761319734156e-05,0.0004016323946416378
15.683822851860896,-2.5198817253112793,-1.2941116094589233,11.894379615783691,-0.00030140660237520933,0.0003290429012849927,0.00022349486243911088
15.704809056827798,7.784451484680176,2.5114967823028564,10.048973083496094,0.0007536979974247515,-0.0005532285431399941,0.0006197254406288266
15.726945970905945,-2.474405288696289,-1.2961450815200806,9.242595672607422,0.0005182353197596967,0.0007525269757024944,0.0007843669736757874
15.745025019859895,7.72994327545166,2.4502644538879395,9.732009887695312,-0.00017414391913916916,-5.0536153139546514e-05,0.0003396531392354518
15.765355160925537,2.5919389724731445,1.2707291841506958,7.624444007873535,-0.00034157559275627136,0.0007718245033174753,0.0010136126074939966
15.785265368176624,5.198802947998047,2.5263609886169434,12.66462230682373,0.00028249836759641767,0.0005903929704800248,0.0007366915233433247
15.804517426993698,2.6657183170318604,1.2886521816253662,9.61660385131836,6.129909888841212e-05,-0.00014814073801971972,0.0004051334981340915
15.825250620255247,2.629140853881836,2.5375421047210693,9.578888893127441,0.0017424989491701126,-0.0002443905104883015,-7.20145326340571e-05
15.843787343241274,-2.4956295490264893,-0.04080437123775482,9.541425704956055,-0.0002033063501585275,-4.252789949532598e-05,-0.0006490080850198865
15.866423649014905,5.1756744384765625,1.2437080144882202,8.979804039001465,0.0006810467457398772,-0.0003984158975072205,-0.00021229144476819783
15.886535351863131,0.06715081632137299,-1.270141839981079,10.352416038513184,-8.63082823343575e-06,-3.646330151241273e-05,0.0006248868885450065
15.905697502894327,-5.029357433319092,0.026634611189365387,9.9642333984375,0.0008450952591374516,-0.000190155697055161,0.0005191879463382065
15.926673299167305,0.04903795197606087,-1.2768449783325195,9.934524536132812,0.0004311511293053627,-0.0008010515593923628,-5.4304065997712314e-05
15.946131022414193,-5.062824726104736,-0.008637433871626854,9.69835376739502,0.0013274450320750475,0.0002564330061431974,-0.0004120790690649301
15.96812844532542,0.037091366946697235,0.6350409984588623,8.025182723999023,-3.2703246688470244e-06,-0.0003463217872194946,0.0012230525026097894
15.986632387386635,0.012326635420322418,-0.6286398768424988,11.860326766967773,-0.00035586103331297636,0.00023285544011741877,-0.0004110559239052236
16.005079282447696,-2.4963817596435547,-2.531224489212036,9.698671340942383,-0.000472709332825616,-9.179195330943912e-05,-3.502052277326584e-05
16.023507493315265,-2.525986433029175,-2.5502405166625977,9.475035667419434,0.00020014810434076935,-0.00017504600691609085,0.000932016409933567
16.045779880369082,-5.069902420043945,-1.2368630170822144,10.765157699584961,0.0005769720883108675,0.0005833365139551461,-5.998314009048045e-05
16.06601553480141,-0.0070339106023311615,-1.2762223482131958,6.886686325073242,0.0007452314021065831,0.0007106080884113908,0.0008292024722322822
16.08625161089003,0.08380387723445892,-0.018023749813437462,12.6815767288208,0.00019848826923407614,0.0002388499997323379,0.0005427512223832309
16.107546912971884,2.592226266860962,-0.6937956809997559,9.3268404006958,0.0012134048156440258,0.000290850322926417,0.0017871982418000698
16.124967753887177,2.607139825820923,-0.02913656085729599,9.773268699645996,-0.000587710936088115,7.472162542399019e-05,0.00017618401034269482
16.145690427161753,-2.5001139640808105,0.014636850915849209,9.800740242004395,0.00032814120640978217,-0.00017948407912626863,0.00014485504652839154
16.166077934904024,-2.5377001762390137,0.03416041284799576,8.40690803527832,0.00025367297348566353,-0.0005966909229755402,-0.0008657798753120005
16.186371939256787,0.016551408916711807,-0.6555562019348145,10.814632415771484,0.0003765365108847618,9.789445175556466e-05,0.0010137294884771109
16.203858943190426,0.04763132333755493,-0.02817665785551071,10.108851432800293,0.0010955799371004105,0.0005972784711048007,0.0010404111817479134
16.224496187409386,-5.060513973236084,1.3434748649597168,10.048369407653809,0.0005988175980746746,-0.00013209538883529603,0.00014392629964277148
16.245829651365057,5.149022102355957,-0.025864049792289734,9.415441513061523,0.0005945342709310353,0.00014226969506125897,-0.00020358801702968776
16.264287076191977,0.05627166107296944,-1.3028937578201294,7.554662227630615,0.0012405433226376772,-0.00061412324430421,-0.00021869760530535132
16.283737525111064,0.053842801600694656,1.3141902685165405,12.80758285522461,0.0006453731330111623,9.833341755438596e-05,0.0003993529826402664
16.3038471841719,0.07486659288406372,-1.2988835573196411,9.359030723571777,-6.161924102343619e-05,-0.00023648413480259478,0.0009091953397728503
16.324034958845004,-7.607187747955322,-1.2364706993103027,9.856624603271484,-0.00039901124546304345,-0.0006821654969826341,-0.0005369657883420587
16.345930371433496,-5.072169780731201,-2.483238935470581,9.902116775512695,7.722777081653476e-05,2.6781141059473157e-05,0.00020074087660759687
16.36361671774648,12.868464469909668,6.3012375831604,5.5343852043151855,0.0010243505239486694,-0.0002632314572110772,-0.0004772162646986544
16.38627848192118,0.07593368738889694,-0.04392894357442856,12.563477516174316,0.0002077875251416117,1.648254692554474e-05,9.535582648823038e-05
16.40587075520307,2.6142165660858154,1.2885624170303345,9.774554252624512,0.0009319916716776788,-0.0010643696878105402,0.00025155689218081534
16.42528569791466,0.058408431708812714,-0.007284338120371103,10.52103328704834,0.0002755750610958785,-0.0007641891716048121,-0.00012030308425892144
16.4447492309846,-10.218167304992676,-2.554708957672119,9.663390159606934,-0.00012654837337322533,0.00014410805306397378,0.000613295822404325
16.46597612579353,0.06650687754154205,0.008608626201748848,6.202809810638428,0.0006124308565631509,-0.00011335474846418947,-0.0008418720681220293
16.483688910724595,0.06247958540916443,1.313751220703125,13.698129653930664,-0.0001520348887424916,0.00014150000060908496,-4.521037044469267e-05
16.50609394465573,0.023399721831083298,1.2433470487594604,9.548141479492188,2.2091800929047167e-05,0.0008450651075690985,0.0007013889262452722
16.52368610468693,15.463202476501465,3.7891101837158203,9.915810585021973,-0.00031060908804647624,0.0006702617392875254,0.0001468968257540837
16.54692590725608,2.600811243057251,1.258425235748291,9.49947738647461,0.0007237468962557614,-1.4611039659939706e-05,0.00012001239520031959
16.563503602985293,2.5848333835601807,-1.3257943391799927,7.120497703552246,0.0004602260887622833,0.0008153432281687856,0.0005249502137303352
16.585704886820167,-5.001809597015381,2.5588362216949463,14.115601539611816,0.0008383100503124297,-0.0002488813770469278,0.0005224514752626419
16.603728531859815,5.222503662109375,2.5592479705810547,9.186516761779785,7.53672793507576e-07,0.00023803726071491838,1.259148120880127e-06
16.62417438905686,-10.214404106140137,-2.482053279876709,9.99051570892334,-0.0012169064721092582,0.0012679839273914695,3.914712578989565e-06
16.6441508596763,5.24696159362793,2.5817689895629883,9.404447555541992,-2.4004082661122084e-05,0.00022040210023988038,0.000331519782776013
16.664541183272377,10.28412914276123,2.525696277618408,7.124499797821045,0.0004275876563042402,-0.00028400577139109373,0.0005948372418060899
16.68599327816628,0.09667637944221497,0.031014906242489815,12.494568824768066,-0.00011403911048546433,0.0006127884262241423,5.1036637159995735e-05
16.704640306998044,-5.082592964172363,-2.5240187644958496,9.814990043640137,0.00021301311790011823,0.0015668264823034406,4.31584776379168e-05
16.724068854702637,0.01667579635977745,2.5956063270568848,9.81221866607666,-0.0001894553570309654,0.0006543707568198442,0.001871804241091013
16.744622592814267,-10.173247337341309,0.06944047659635544,9.301061630249023,-0.0003491708484943956,0.0005025853752158582,0.0006981683545745909
16.766115825623274,0.06245402246713638,1.3152351379394531,7.617566108703613,0.0005785704124718904,0.0009462754824198782,0.00021271260629873723
16.783616383792832,-10.166764259338379,-5.044277667999268,11.988332748413086,0.000429673062171787,0.00021953789109829813,0.0007807785295881331
16.80407876172103,5.116454601287842,-0.053527720272541046,10.299139976501465,0.0003567359526641667,-5.196158599574119e-05,-0.0008993216324597597
16.82395350281149,0.09167283028364182,2.570138692855835,9.191595077514648,-0.0001903200027300045,0.0005524434964172542,0.0006154659204185009
16.845078938640654,10.305381774902344,3.769465446472168,9.963271141052246,0.00044418679317459464,0.0005894294590689242,-0.00011934639769606292
16.866406611865386,-2.5557844638824463,-0.02131924405694008,7.680552959442139,0.0002613070828374475,0.0002142705488950014,0.00046596204629167914
16.883516832021996,5.255090713500977,-0.06463301181793213,12.281314849853516,0.0003827126929536462,-0.0006959656602703035,-0.0012855478562414646
16.903608958935365,122.93828582763672,-0.7682520747184753,11.240346908569336,0.000768958474509418,-0.0028721296694129705,0.0006798189133405685
16.925399786559865,81.85116577148438,-5.620943069458008,9.777793884277344,0.000335139746312052,-0.005997948814183474,-0.0007345351623371243
16.94424557662569,71.70305633544922,-2.947563648223877,9.713982582092285,0.00115953478962183,-0.007502882741391659,-0.0007111775339581072
16.96602897089906,163.93006896972656,5.451470375061035,7.655801773071289,0.0015030502108857036,-0.010107592679560184,0.003887179773300886
16.985602929722518,53.813133239746094,0.9983605146408081,12.484701156616211,0.00023275776766240597,-0.011214242316782475,0.000865281093865633
17.004979610908777,215.0885772705078,-3.832257032394409,10.088107109069824,0.001008099177852273,-0.013391268439590931,0.0007666847086511552
17.024176236009225,-2.461538791656494,0.010112335905432701,9.285865783691406,0.0004223150317557156,-0.01727396622300148,0.0010182781843468547
17.045777600025758,250.9789581298828,-0.2112368941307068,9.53001880645752,-0.00028735975502058864,-0.01752888783812523,-0.0006583509966731071
17.06372151733376,-153.51502990722656,0.9212539196014404,6.850809097290039,0.0003985042276326567,-0.018887098878622055,-0.000439975643530488
17.08689699927345,-22.92824363708496,-1.7881008386611938,11.188596725463867,0.0003328559105284512,-0.019233258441090584,-0.0007377673755399883
17.10572850331664,455.79791259765625,3.7038979530334473,8.996170997619629,-0.0004800812166649848,-0.019664468243718147,-0.00014669742085970938
17.124804932856932,215.11419677734375,-1.2706393003463745,8.166744232177734,0.00030067277839407325,-0.019415773451328278,-0.00012514337140601128
17.146390797570348,-207.3663787841797,-3.8903658390045166,9.363075256347656,0.000515366904437542,-0.01830173283815384,-0.00029470911249518394
17.165746048791334,233.02830505371094,2.491452217102051,5.975619316101074,0.0003699118969962001,-0.017893875017762184,-0.0004925130633637309
17.18477721582167,53.869049072265625,-1.543552279472351,11.352224349975586,-0.0004263216978870332,-0.01729569211602211,-0.0005169361247681081
17.205971509683877,378.9220275878906,-3.4576847553253174,6.737945079803467,0.00011397311027394608,-0.016232924535870552,-0.000369126268196851
17.22371221659705,56.405609130859375,-1.6269607543945312,8.30734920501709,0.0001690728240646422,-0.01551472395658493,0.00045782182132825255
17.245538169750944,850.0677490234375,2.7307605743408203,2.256298303604126,0.0007744539179839194,-0.013890315778553486,-0.0003675303887575865
17.26550584519282,-678.27734375,1.4361921548843384,11.940423965454102,-0.0001895861205412075,-0.012547975406050682,-0.000563973851967603
17.283560508396477,89.6526107788086,-0.5135805010795593,10.878938674926758,-0.00010779031435959041,-0.01243571937084198,-0.0006585456430912018
17.304704518057406,371.2264404296875,-2.1884572505950928,5.318384647369385,-0.0002519979025237262,-0.010111742652952671,-0.0002992538793478161
17.32386845187284,133.1835174560547,0.48188966512680054,7.786952495574951,-0.00048757053446024656,-0.009632391855120659,-0.00018201983766630292
17.344016092829406,327.7635192871094,3.259326219558716,5.25104284286499,0.00040820971480570734,-0.008536536246538162,-0.0007685149903409183
17.36497497651726,358.5119323730469,-0.8269994258880615,2.5583701133728027,0.0007744032191112638,-0.00721471244469285,0.00026653718668967485
17.384689157595858,87.16136932373047,0.7892736196517944,11.07345962524414,0.0008293847786262631,-0.0058938139118254185,-0.0009494121186435223
17.406167963519692,-737.1119995117188,0.3526001572608948,17.66983985900879,-0.0004732506931759417,-0.005397729575634003,-0.0014756025047972798
17.42419234965928,404.539306640625,-2.3200366497039795,4.404341697692871,-5.1773953600786626e-05,-0.004596640821546316,-0.00031709769973531365
17.443778281332925,414.79693603515625,1.4009997844696045,4.513522624969482,0.0009827674366533756,-0.0020398683845996857,-0.0006499660667032003
17.464631549548358,-575.859375,0.7332934737205505,14.644613265991211,-0.00030542194144800305,-0.0012096167774870992,9.3993847258389e-05
17.485798742389306,1154.6484375,-1.3864026069641113,-2.3688302040100098,0.0005573926027864218,-0.0009315758943557739,-0.0007767519564367831
17.504532553022727,-601.463623046875,-0.440032422542572,16.662715911865234,0.0001639995607547462,-0.0010033806320279837,-0.0005118027329444885
17.52433830499649,-143.1609649658203,4.644407272338867,11.164637565612793,0.00021284344256855547,0.0009894897229969501,-0.0003670576261356473
17.546265247045085,980.5533447265625,-5.505734920501709,-3.1505866050720215,-2.4897148250602186e-05,-0.0003361455164849758,-0.00015678905765525997
17.565591745078564,35.883602142333984,-0.1900974065065384,6.304645538330078,0.000455592991784215,0.0011487903539091349,-0.0006413314258679748
17.58737757289782,-1316.8590087890625,1.52504563331604,28.80539894104004,-0.0006131689297035336,0.00239341682754457,-0.00027159106684848666
17.604765431955457,1070.120361328125,-0.8424407243728638,-3.609405755996704,0.000496955995913595,0.002897944999858737,-0.0003303786797914654
17.623693825909868,355.9216613769531,-0.6873278617858887,5.362612247467041,0.00047109086881391704,0.0031689172610640526,-0.0008345821406692266
17.64550782670267,578.6141357421875,-1.8819072246551514,2.272413730621338,0.00040637870552018285,0.002861342392861843,-0.0008606751216575503
17.666028143139556,-532.3461303710938,1.6466782093048096,13.9501314163208,-0.0001067300618160516,0.003235433716326952,-0.0005660348106175661
17.684737749397755,993.4124755859375,2.210265874862671,0.0018374733626842499,-0.0005942536517977715,0.002557004103437066,0.0007152876351028681
17.705146797467023,-493.9430847167969,-1.1459873914718628,16.042184829711914,-0.0004214317013975233,0.0046209534630179405,-0.0008480178657919168
17.725784041220322,629.8892822265625,2.96608304977417,1.3461389541625977,0.0002632694086059928,0.005667597521096468,-0.000406668521463871
17.7463912605308,-381.31951904296875,-4.2429022789001465,13.4596586227417,0.001074333442375064,0.007887141779065132,-0.0007254998199641705
17.76526906946674,-99.8332748413086,-0.7260714173316956,7.354697227478027,0.00020374852465465665,0.01194281317293644,-0.0006996236043050885
17.784136039437726,-568.134033203125,-0.7532263994216919,18.37130355834961,-0.0003926267963834107,0.016110358759760857,-0.000588849710766226
17.804183913161978,481.34478759765625,-1.3477023839950562,2.277045726776123,0.0004495116590987891,0.019377822056412697,-0.00038844376103952527
17.825354603119195,233.10557556152344,1.3188749551773071,5.701601505279541,0.0004802407056558877,0.022571798413991928,0.00028843391919508576
17.844064770033583,399.4112548828125,-3.47050404548645,3.778182029724121,-0.00011681413161568344,0.024455325677990913,7.098155037965626e-05
17.86563280178234,-76.72392272949219,4.2968902587890625,7.558582782745361,-0.00017966471204999834,0.02552630566060543,0.0002145307371392846
17.883719574892893,-281.45050048828125,2.769725799560547,15.254097938537598,0.0006064954213798046,0.026558304205536842,-0.0006462245946750045
17.90558830765076,1643.569580078125,3.9484689235687256,-7.945566654205322,0.00021785397257190198,0.026559460908174515,-0.0012441829312592745
17.924606129527092,-1668.9530029296875,-1.2758115530014038,26.206443786621094,-0.00011855071352329105,0.026518167927861214,-0.0012288910802453756
17.944774648640305,384.0758361816406,-2.0508012771606445,6.608250617980957,0.00011617746349656954,0.02488563023507595,-0.0005458106752485037
17.965875608380884,-621.968017578125,0.7550132274627686,12.695531845092773,0.00034575985046103597,0.022883325815200806,-8.031307515921071e-05
17.98348549171351,102.53296661376953,3.275317430496216,13.47304630279541,0.0006697999779134989,0.02113940566778183,0.00021222994837444276
18.00416786945425,1607.6961669921875,1.6290570497512817,-1.4432591199874878,-0.00015530124073848128,0.01799941621720791,-5.790501745650545e-05
18.024648050544783,-368.56500244140625,7.131363391876221,13.940935134887695,0.0005588734056800604,0.016186043620109558,-0.001035802997648716
18.04395598405972,-1489.8232421875,-2.241220474243164,21.035919189453125,-2.7811649488285184e-05,0.013719280250370502,0.00014094539801590145
18.06371238385327,-803.8350830078125,0.4935324192047119,12.480663299560547,-0.0006401046412065625,0.011257198639214039,-0.0007365737692452967
18.085157385794446,1118.7672119140625,-0.8470531105995178,7.637150764465332,-0.00034121773205697536,0.008342535234987736,-0.00031047387165017426
18.105083953938447,819.31005859375,5.83506965637207,6.338291168212891,-0.0007088903803378344,0.006112477742135525,-0.0005283458740450442
18.123994064168073,-1653.7259521484375,1.158564567565918,19.197019577026367,0.00033917289692908525,0.004099150188267231,0.0002700625918805599
18.146111862151884,-46.04126739501953,0.29752910137176514,10.110647201538086,5.476073420140892e-05,0.0029201817233115435,-0.00023069466988090426
18.167298692744225,-345.5444641113281,0.5517675280570984,10.883013725280762,0.0011483655543997884,0.0017439783550798893,0.0003122128255199641
18.18500624783337,-913.8329467773438,-1.4870785474777222,14.934404373168945,-0.00025632858159951866,0.0016374691622331738,0.00037399481516331434
18.207946130540222,444.2012634277344,-0.14809226989746094,7.602318286895752,0.0005592316156253219,-1.1202995665371418e-05,0.0007206910522654653
18.225009873276576,-456.9393005371094,-0.7966895699501038,12.276772499084473,0.0006321073742583394,-0.0004916397738270462,-0.00035443066735751927
18.243964987341315,1208.3260498046875,0.5942965149879456,4.354528903961182,-0.0003526533837430179,0.0002519612608011812,-0.0006358765531331301
18.263941989280283,163.95191955566406,0.3520802855491638,7.205045700073242,0.0004795907298102975,3.8785787182860076e-05,0.0004173588822595775
18.285016590496525,545.2752685546875,-1.6087703704833984,9.584695816040039,0.0003417988191358745,-0.0006053168326616287,0.00018320554227102548
18.303811194375157,1218.650146484375,1.1453670263290405,3.7265312671661377,0.0003811931237578392,-0.00041703562601469457,0.0005969344056211412
18.325419551692903,81.95279693603516,-0.4549691677093506,9.825555801391602,-0.0009636754984967411,-0.0009662791853770614,0.0004372901748865843
18.345452117733657,-296.8727722167969,1.5496026277542114,11.220113754272461,-1.6814941773191094e-05,-0.0015934359980747104,-0.0007407328812405467
18.365908103762195,-1192.940673828125,-2.6228182315826416,11.869913101196289,-0.00045853096526116133,-0.0013936429750174284,0.0007841387996450067
18.385993517702445,750.11767578125,-1.3657673597335815,10.161699295043945,0.0002568477066233754,-0.0021482494194060564,-0.0007326186751015484
18.403600114630535,-1006.0133666992188,-1.1049357652664185,14.498920440673828,-8.321151835843921e-05,-0.002780598821118474,-0.0012554486747831106
18.425353351747617,1868.825927734375,-2.225689649581909,0.6683306097984314,0.0004436455201357603,-0.0022643303964287043,-0.0005892100743949413
18.44500062870793,-1477.071533203125,1.4130990505218506,16.87468719482422,0.0005062740528956056,-0.0031499280594289303,-0.0004051719733979553
18.465888710459694,1351.7384033203125,3.131744623184204,0.03353610634803772,4.517523484537378e-05,-0.0020427503623068333,-0.0011104632867500186
18.484775817254558,-527.304931640625,-2.3363876342773438,16.03020477294922,0.0009628394618630409,-0.002908579306676984,-0.00021022419969085604
18.505085590295494,-348.075439453125,1.7584216594696045,11.497455596923828,-0.0004762441385537386,-0.001937354332767427,-0.0001549502630950883
18.52511292602867,552.994384765625,4.786009788513184,6.60876989364624,0.00024145205679815263,-0.001988060073927045,0.0003589388797990978
18.54619209514931,-849.9034423828125,-4.488687038421631,13.572576522827148,0.00031614958425052464,-0.0015904582105576992,2.0789475456695072e-06
18.564101577969268,-458.1817932128906,-0.11640602350234985,9.447768211364746,6.135737930890173e-05,-0.0011360247153788805,4.593932317220606e-05
18.58441279293038,-721.859619140625,0.5404310822486877,16.63732147216797,-0.00014335854211822152,-0.0013576424680650234,0.001198449870571494
18.604323671897873,2042.9259033203125,-0.46348413825035095,-1.6836118698120117,0.00046241539530456066,-0.0008430341258645058,-0.0003542502236086875
18.625651826150715,-1712.5899658203125,1.2837576866149902,19.305593490600586,0.0003256874333601445,-0.0008609771612100303,-5.538691766560078e-06
18.64565106900409,1226.36474609375,-0.007407570257782936,2.894249677658081,0.00041880988283082843,-0.0003893286339007318,-0.0017361429054290056
18.66407226631418,-491.44830322265625,6.411426067352295,9.29746150970459,0.0009141006739810109,0.00014170893700793386,-0.00012041526497341692
18.68415503646247,1300.5667724609375,6.004773139953613,6.22532844543457,0.0008525056764483452,-0.00037501752376556396,-0.0003672163584269583
18.70481429132633,-1210.81787109375,-3.951615571975708,16.220422744750977,0.0004901101929135621,-0.0009095417917706072,5.35011786269024e-05
18.724438464501873,1075.2169189453125,2.0998570919036865,3.2253241539001465,-0.0001948956196429208,-4.770845407620072e-06,0.0003056285495404154
18.74373244168237,-1008.609619140625,0.11102960258722305,15.790787696838379,-0.00019966157560702413,-0.00028598643257282674,-0.000498238077852875
18.765926622552797,808.9856567382812,-0.3582227826118469,1.740315318107605,-1.8561360775493085e-05,0.0005723629146814346,-5.607150524156168e-05
18.78471278049983,-732.1026000976562,-3.840665817260742,17.781835556030273,0.0011209509102627635,-1.602014890522696e-05,0.001068418612703681
18.806685638614,-727.0046997070312,-0.039792269468307495,13.442200660705566,-3.5748962545767426e-06,0.00033653335412964225,0.0006775135407224298
18.825000828597695,271.4452209472656,-3.942753553390503,8.17203426361084,0.00035063226823695004,-0.0007708622724749148,-0.00036902056308463216
18.84532307460904,1592.403564453125,1.9685564041137695,0.49034762382507324,0.0007784358458593488,0.00013163356925360858,-0.0003993533318862319
18.865128435892984,-1738.1995849609375,-2.5051517486572266,17.61556053161621,-1.1500538676045835e-05,0.0006886450573801994,0.0008577940752729774
18.885385780828074,1617.983154296875,-0.6875461935997009,3.244704484939575,-9.756530926097184e-05,0.0003569831606000662,0.00025743100559338927
18.904658287763596,-1141.7232666015625,2.034261703491211,16.37725830078125,0.00016518797201570123,0.0007205872097983956,2.934969961643219e-05
18.925865094875917,1136.6693115234375,0.5638930797576904,3.2029669284820557,0.000595387420617044,0.00033990174415521324,0.0004413569113239646
18.94565716199577,-1351.6427001953125,0.5880564451217651,17.230777740478516,-0.00012542805052362382,-0.00021623732754960656,-0.0008114778902381659
18.964686084073037,-478.67608642578125,-1.3577121496200562,8.830023765563965,0.00018393906066194177,0.00019020697800442576,7.851915142964572e-05
18.984232913237065,-212.40875244140625,-0.19763292372226715,14.815757751464844,-0.00027433043578639627,-0.00023325567599385977,0.00020946816948708147
19.00399086624384,1213.514404296875,2.7128052711486816,2.6805355548858643,-0.00019055945449508727,0.0005261930637061596,2.8121772629674524e-05
19.025575609179214,-81.83505249023438,0.4066159129142761,10.214129447937012,0.0005602827295660973,5.161311128176749e-05,0.0008922884007915854
19.04381868429482,-1041.8590087890625,0.23935945332050323,15.708575248718262,0.0009139014291577041,0.0003214578318875283,0.00031503476202487946
19.065139173762873,1090.57080078125,0.8403744101524353,0.06147098168730736,0.0004888477269560099,0.0001733480312395841,8.09926277725026e-05
19.08496801974252,-570.8134155273438,-3.484025001525879,17.06661033630371,0.00022914126748219132,-2.7466099709272385e-05,8.446484571322799e-05
19.106146775186062,-889.4961547851562,-0.5944259762763977,14.560863494873047,0.0005476226797327399,0.0008906717412173748,0.0004997086944058537
19.12540323124267,437.8005065917969,0.3242875635623932,7.462334632873535,0.00043632800225168467,0.0005605663172900677,8.033208723645657e-05
19.144638799363747,793.7214965820312,2.333108425140381,5.253811836242676,0.00018747786816675216,-0.0002621987368911505,-0.0005040765972808003
19.16533331037499,-256.0091857910156,-2.490999221801758,8.14605712890625,-0.00021980787278153002,0.0004838007444050163,0.0004461208009161055
19.183905930491164,-314.7770080566406,-3.504819393157959,15.137929916381836,-9.59626559051685e-05,0.00017607245536055416,-0.0018454128876328468
19.20552010834217,496.6712951660156,-7.647408485412598,6.830127716064453,-0.00012185667583253235,0.0004594436031766236,-0.0018339771777391434
19.225841152481735,168.99874877929688,-0.8764550685882568,8.758888244628906,-0.0008016671054065228,0.00038709360524080694,-0.002608857350423932
19.24616447184235,-1336.2960205078125,0.20636698603630066,16.91533660888672,-0.0002550638746470213,0.0008126922184601426,-0.0035964902490377426
19.265569114359096,1300.5010986328125,0.05879836902022362,0.1745622456073761,0.0002058764366665855,7.147906580939889e-05,-0.0036244369111955166
19.28376635327004,-570.8065185546875,2.6850666999816895,16.47402000427246,-0.0004698297125287354,0.0005398450302891433,-0.004280357155948877
19.303500161273405,105.00509643554688,0.7064245939254761,8.830233573913574,5.294644506648183e-05,0.00087542156688869,-0.004747771192342043
19.325358184054494,947.2715454101562,0.8262717723846436,4.736840724945068,-0.000796977779828012,0.0011250270763412118,-0.004063611384481192
19.34676287113689,-1198.0439453125,-1.0042821168899536,16.17091941833496,0.0003166120150126517,-0.00038594400393776596,-0.004695613868534565
19.366100889863446,-115.12206268310547,1.7708057165145874,7.377402305603027,-0.0001243458391400054,5.7184952311217785e-05,-0.004584223497658968
19.3835320698563,-616.9093627929688,1.412757396697998,16.513715744018555,-0.000415394373703748,-0.00044000218622386456,-0.0049441964365541935
19.405731078702956,1464.3519287109375,-3.6395251750946045,1.7714424133300781,0.00033392827026546,0.00037064042408019304,-0.004296149592846632
19.42463433649391,-831.9668579101562,-0.41496920585632324,14.339021682739258,-4.3881896999664605e-05,0.00021094612020533532,-0.0038927956484258175
19.445796670159325,476.13525390625,-4.530789852142334,7.051021099090576,6.733938789693639e-05,0.0002997508563566953,-0.004246925003826618
19.46394919627346,-360.9221496582031,0.17209655046463013,8.193809509277344,0.0007853979477658868,0.0010467978427186608,-0.0020612902007997036
19.48476837016642,1082.975341796875,0.8956097364425659,8.34616756439209,0.00040784786688163877,8.917239028960466e-05,-0.0030247815884649754
19.506976146250963,-1323.4876708984375,-0.6656073331832886,16.7996826171875,0.00014519925753120333,0.0013322459999471903,-0.003225915366783738
19.52402104414068,376.36529541015625,-0.19764244556427002,7.716181755065918,0.00022154343605507165,0.00015488082135561854,-0.00390007090754807
19.544589490396902,15.430482864379883,-3.9386446475982666,9.551146507263184,0.00016174279153347015,0.0009159933542832732,-0.0025837712455540895
19.565785858780146,296.98193359375,0.13580861687660217,5.164702415466309,1.538611832074821e-05,-0.00014642738096881658,-0.003612370230257511
19.584649392636493,491.5854187011719,-0.4981895685195923,11.095314025878906,0.0004992617177776992,0.000244153052335605,-0.002092051552608609
19.60514198662713,-819.1190795898438,1.6630563735961914,13.936507225036621,0.0005457543884404004,0.0006772999768145382,-0.002191043458878994
19.62414550036192,-127.9721450805664,1.7083476781845093,10.255180358886719,0.00017898972146213055,0.00035348188248462975,-0.0020786311943084
19.64551141532138,82.02234649658203,0.9941688776016235,9.310503959655762,0.00019110451103188097,4.226870078127831e-05,-0.0016066108364611864
19.66412991192192,71.70114135742188,-1.5143072605133057,5.855114459991455,0.00030458622495643795,0.00036729732528328896,-0.0017320108599960804
19.68633429100737,-629.708984375,-0.40162205696105957,16.565677642822266,0.0004045455134473741,0.0003751495969481766,-0.002535095904022455
19.704926487989724,796.192138671875,-1.4228315353393555,5.804568290710449,0.0006699280347675085,0.0004313883255235851,-0.0021599794272333384
19.7251851959154,396.833984375,-2.596728563308716,7.330280780792236,0.000592745200265199,0.0006412158836610615,-0.001467726076953113
19.743999297032133,-529.8563842773438,0.49169448018074036,12.474007606506348,0.00019256396626587957,0.0009774372447282076,-0.0021111201494932175
19.76556393248029,-69.05987548828125,-2.3534185886383057,7.987662315368652,-0.00055438291747123,-0.00016787624917924404,-0.0007904372178018093
19.78476872271858,-5.057682514190674,-1.214450716972351,12.167655944824219,8.980045095086098e-06,0.000474505010060966,-0.001361955888569355
19.805912703741342,7.752803325653076,1.284752607345581,9.763507843017578,0.000891196308657527,0.00020474742632359266,0.00030039146076887846
19.826082554878667,455.7501220703125,-0.1857426017522812,6.904838562011719,0.000739177456125617,0.00038168387254700065,-0.0004056516336277127
19.84585209004581,640.05859375,4.343390941619873,6.4287285804748535,-0.00046783435391262174,0.00013815653801430017,-0.0006560561596415937
19.866151332855225,-714.2448120117188,-4.146567344665527,12.526204109191895,-0.0003743020351976156,0.0001605456491233781,-0.00035092406324110925
19.884552523028105,-371.179931640625,-1.412207007408142,12.941387176513672,0.0005359441856853664,-8.64663888933137e-05,-7.088162237778306e-05
19.905257925158367,-422.3105773925781,1.321650743484497,12.132281303405762,-0.000307401642203331,-0.0006624246016144753,0.00015427212929353118
19.926962411263958,373.8255615234375,0.11088436096906662,7.5073065757751465,0.00012445724860299379,0.0007268328918144107,-0.0010979105718433857
19.944988511502743,-350.65234375,-1.4520245790481567,11.84913158416748,0.0018982933834195137,0.0005068361642770469,8.032374898903072e-05
19.964282689616084,1059.8505859375,1.7515827417373657,1.1186857223510742,0.0014529996551573277,0.0007323939353227615,-0.00013411088730208576
19.98380272765644,204.88482666015625,1.8995636701583862,12.237725257873535,0.0007837915327399969,0.0008046844741329551,-0.00047690566862002015
20.003525174688548,-639.90283203125,-4.353619575500488,13.149982452392578,0.00085849454626441,0.00014977763930801302,-9.209469862980768e-05
20.025920340325683,880.6392211914062,-0.19645844399929047,4.724350452423096,0.0008990568458102643,0.0006679361104033887,-0.0006539718597196043
20.044429942034185,-1141.6925048828125,-4.077272415161133,16.05091094970703,0.0007539730286225677,0.0006712195463478565,0.0003132278798148036
20.06656706589274,-74.18680572509766,-0.39796680212020874,7.821760177612305,0.00029646861366927624,-0.00019425041682552546,-0.00012988959497306496
20.084389635827392,35.89256286621094,-0.07390353828668594,12.658644676208496,0.0006578952888958156,0.0010719881393015385,1.2253440218046308e-05
20.10454140463844,488.9710693359375,-2.7665700912475586,6.939886093139648,0.0006384162697941065,-8.806564437691122e-05,-0.0003374170628376305
20.12445141072385,-61.402103424072266,-1.1014765501022339,10.033719062805176,0.00021364929853007197,-0.00030114728724583983,0.00016750245413277298
20.14517343346961,-353.1444091796875,-5.251943588256836,11.583481788635254,0.0005310928099788725,-0.0004788577207364142,-0.0001434748264728114
20.167044380446896,-266.157958984375,0.8036518692970276,9.23137092590332,0.00013819319428876042,4.764736513607204e-05,0.0001655909582041204
20.18511135666631,-632.3016357421875,1.9959818124771118,15.508755683898926,0.00023431719455402344,-0.0005770139396190643,0.0003526376676745713
20.20462768850848,1500.18408203125,-2.0186519622802734,1.5049059391021729,0.00038630125345662236,0.00034454616252332926,0.0007707388722337782
20.224623205373064,304.6436462402344,-0.9585645794868469,7.819295406341553,-0.0003491267270874232,0.0010035777231678367,0.0002864229027181864
20.244405813282356,-278.95574951171875,3.4025650024414062,11.239009857177734,0.0011734555009752512,-6.012851372361183e-05,0.000755835440941155
20.2663665486034,250.90435791015625,-2.0818302631378174,4.136891841888428,0.00048807531129568815,0.0004667197063099593,-3.351554914843291e-05
20.28395044361241,-642.4356079101562,4.545787811279297,18.347503662109375,-0.00029135262593626976,0.00018056819681078196,0.0007756196428090334
20.304911862593144,645.2271118164062,1.8500645160675049,5.955044269561768,0.00017713576380629092,-1.3097713235765696e-05,-0.0002699724864214659
20.32356651639566,-25.566240310668945,0.06151391565799713,9.730069160461426,0.0003237352939322591,0.0005787367117591202,-0.0003570731496438384
20.344819609075785,1761.30419921875,-0.21598948538303375,0.06975225359201431,-0.0002591162046883255,0.0014608727069571614,0.0004613259225152433
20.364507692167535,-1684.4442138671875,-0.01639372482895851,14.944042205810547,0.0010810279054567218,-6.817506800871342e-05,0.0002721872879192233
20.386278372257948,-555.41943359375,-0.8664645552635193,16.61909294128418,0.00022642531257588416,0.00033172336407005787,-0.00024249943089671433
20.406073184218258,-204.7228546142578,-0.633604109287262,10.686903953552246,-5.906840669922531e-06,-0.00013955954636912793,-0.0006109896348789334
20.42716229148209,-670.682861328125,-1.164336919784546,13.398314476013184,0.000227912183618173,0.0004857247113250196,-0.0008719497127458453
20.444449873641133,-35.750091552734375,0.10923842340707779,10.065103530883789,0.0003665439726319164,0.0010484037920832634,4.773216642206535e-05
20.46366012399085,921.626953125,-0.18123430013656616,1.2603933811187744,0.0008038883097469807,-0.00012414240336511284,-0.0006752835470251739
20.486538192024454,87.12777709960938,1.0026729106903076,13.381189346313477,-0.00047598115634173155,0.0004763725446537137,-0.00013356786803342402
20.506767644546926,-865.2357177734375,0.007445110008120537,14.414203643798828,1.838640309870243e-05,-0.00010177213698625565,-0.0004579512751661241
20.52607949473895,378.89947509765625,-0.5283753871917725,7.657965660095215,0.0006095223361626267,-0.0005965911550447345,-0.0014444865519180894
20.54618036770262,576.0213623046875,-0.44229361414909363,6.390820503234863,0.0001862517383415252,-0.0003979188622906804,-0.0009937739232555032
20.565909025259316,-122.85388946533203,1.5911917686462402,7.196315765380859,0.0005921255215071142,0.0006033039535395801,0.00042642216430976987
20.587586441077292,-568.2124633789062,1.6320632696151733,16.050439834594727,0.000404897378757596,0.0009302297839894891,-0.0006993401912041008
20.604305760469288,110.1651840209961,-0.3456271290779114,8.717382431030273,-0.0004825826035812497,0.0006528705125674605,-0.0005445796996355057
20.62426849664189,2.605661630630493,3.188124418258667,10.013965606689453,3.0758194043301046e-05,0.0004519534413702786,-0.00022106975666247308
20.646282219327986,499.22186279296875,0.46218132972717285,7.069225311279297,0.0005848154542036355,-0.0008626248454675078,-0.0011143339797854424
20.665763074764982,-465.9148864746094,0.0683901309967041,9.683194160461426,-0.0001336447603534907,-0.0004347563080955297,0.0009346399456262589
20.68536577769555,350.752685546875,-1.0048409700393677,11.391593933105469,0.0004915448953397572,-0.00010361496242694557,2.80573294730857e-05
20.704851041547954,-204.78265380859375,-0.6327021718025208,10.681526184082031,0.00013724114978685975,0.0005386424018070102,-0.00037680790410377085
20.724958496401086,115.27206420898438,-0.29955244064331055,8.87228012084961,-3.264410770498216e-05,-0.0006033098325133324,-0.00011067125160479918
20.745511213317513,222.7912139892578,1.8732717037200928,8.235366821289062,0.00037151467404328287,0.0005332404980435967,-0.0006423019804060459
20.76569268689491,-322.5159912109375,2.208601951599121,8.55916690826416,-0.00019548035925254226,0.0006519850576296449,-0.0008422414539381862
20.785350913880393,273.96380615234375,-0.7503844499588013,12.100924491882324,-5.227047950029373e-05,0.00041426156531088054,-6.296239735092968e-05
20.804285409860313,-74.18854522705078,-1.0594048500061035,9.992060661315918,-0.00025171524612233043,-3.369348996784538e-05,-0.00040968810208141804
20.82416416797787,-335.3531799316406,0.9814520478248596,11.461630821228027,-7.293958333320916e-06,7.215783989522606e-05,0.0003254213952459395
20.844979414716363,335.37066650390625,-0.9983787536621094,7.6696624755859375,-0.000328349182382226,0.0002983699378091842,6.186803511809558e-05
20.86525258887559,-330.22760009765625,0.9711901545524597,9.169319152832031,0.0006513057742267847,-0.0005108064506202936,-0.0004653761861845851
20.88636077265255,417.3578186035156,-1.2698005437850952,10.379142761230469,-0.00045205812784843147,0.0011800751090049744,-0.00021441606804728508
20.905951532768086,-875.50537109375,1.239115834236145,14.560088157653809,-0.0002531567879486829,0.0001597980735823512,0.0003036392154172063
20.923797917552292,92.21411895751953,-2.2415030002593994,9.183496475219727,-0.00030480092391371727,0.00017461119568906724,-0.0006961135077290237
20.947596312500536,99.82630157470703,-0.2908753454685211,9.234006881713867,-0.000312393152853474,-4.0220707887783647e-05,-0.0007053459412418306
20.965806576423347,322.6127014160156,2.257019519805908,6.529103755950928,9.486393537372351e-05,0.0002793800085783005,0.0005741962231695652
20.98594078142196,46.17031478881836,1.1719554662704468,11.516812324523926,0.0003399233683012426,-0.00046658626524731517,0.00023863113892730325
21.0045716103632,990.7567138671875,1.0579482316970825,4.258810520172119,0.0003559769247658551,-0.0008528385660611093,0.00019161014643032104
21.024382872274145,-286.6304931640625,4.669879913330078,10.9371337890625,0.0007593284826725721,-0.0003026452613994479,0.0015838723629713058
21.04359887447208,-243.16888427734375,-0.6231350302696228,11.216169357299805,0.0011974149383604527,0.0005699791363440454,0.0004608830204233527
21.06630520056933,407.1235046386719,0.12344300746917725,4.412797451019287,-0.0006268580909818411,0.0011384868994355202,-3.277020005043596e-05
21.08666172181256,-506.8303527832031,0.15473657846450806,15.950299263000488,-6.751409091521055e-05,-0.0008178850403055549,0.00023644111934117973
21.10562109411694,791.07373046875,-3.5348172187805176,5.373644828796387,-0.001240748562850058,-0.00022269025794230402,0.0002314217563252896
21.12506291619502,-133.05177307128906,1.6962624788284302,10.634420394897461,4.2795465560629964e-05,0.00038252962986007333,0.0016238493844866753
21.14523814828135,-222.687255859375,-1.912293553352356,10.647130012512207,0.00027092432719655335,-7.785898924339563e-05,0.00035421186476014555
21.164392424048856,-1420.7764892578125,-2.421731472015381,16.577165603637695,-0.001033532083965838,0.000554508704226464,0.00028578779892995954
21.184582413872704,1556.54345703125,0.7525874972343445,2.636914014816284,4.2436819057911634e-05,0.00046350195771083236,0.0016535598551854491
21.204544618027285,563.2581176757812,-2.839155435562134,6.732082843780518,-0.0006473790854215622,0.00035925861448049545,0.00034685281571000814
21.224807914113626,701.4954223632812,5.732187747955322,5.540578365325928,5.651261017192155e-05,0.0005589588545262814,-5.063928256276995e-05
21.245763903018087,-711.6119384765625,-3.1636972427368164,13.181600570678711,0.0005041619297116995,0.000940033991355449,-8.577532571507618e-05
21.26361778192222,-1694.6544189453125,0.8323788046836853,17.208425521850586,0.00015582087507937104,-0.0003335460205562413,0.00014993231161497533
21.285889076068997,1236.5350341796875,0.4091462194919586,5.145171642303467,6.224430399015546e-05,0.0004929140559397638,-0.000757488829549402
21.303934001130983,-849.8709716796875,1.0098776817321777,14.859878540039062,-0.0003211951407138258,0.000910867762286216,0.00030094844987615943
21.32519629318267,378.8906555175781,0.19396519660949707,7.478216171264648,-0.0005067987367510796,0.0005502857966348529,-0.0001217559038195759
21.34596010344103,33.355594635009766,-2.6259636878967285,9.274460792541504,-0.00018466173787601292,0.00019053250434808433,0.00022004118363838643
21.36448929226026,-381.4163513183594,-1.5334277153015137,8.493910789489746,0.0002684358914848417,0.00039492640644311905,-0.00041853298898786306
21.383607080206275,978.0198364257812,2.380309820175171,9.432562828063965,0.00013271714851725847,0.0001721938606351614,0.0004014766891486943
21.404755999101326,824.3414916992188,-4.841455936431885,4.976497650146484,0.0009200788335874677,0.0001902258227346465,-0.00018444737361278385
21.425591143313795,-1226.206787109375,-0.4931156039237976,16.01566505432129,-0.0002517504617571831,0.0010704572778195143,-0.00016122487431857735
21.445575759047642,972.9034423828125,1.1101638078689575,4.331299304962158,0.00039001673576422036,0.00020895061607006937,-0.00025213990011252463
21.465938079869375,-1415.6702880859375,0.03894969820976257,14.972900390625,9.59676835918799e-05,0.001020533498376608,-0.0006470269290730357
21.484403690556064,169.01358032226562,-0.4807123839855194,11.785761833190918,0.00012464189785532653,0.00038493721513077617,0.000329545175191015
21.506086075212806,719.430908203125,1.8684072494506836,5.875385761260986,0.0004608945455402136,-0.0003682335664052516,0.00034529418917372823
21.523703211452812,-1831.5750732421875,-2.0166015625,19.792648315429688,0.0001111961537390016,0.0010810175444930792,2.1342630134313367e-06
21.544730043038726,2590.779052734375,-0.6395023465156555,-5.00063943862915,0.0007817238220013678,4.146574065089226e-05,-0.0004147083964198828
21.567010605474934,-2039.01416015625,-0.21047204732894897,19.910737991333008,-0.00031289050821214914,-0.00021741904492955655,-0.0009705518605187535
21.58503912948072,402.00714111328125,-1.1126375198364258,9.288034439086914,0.000301544729154557,0.0002975724055431783,-0.00029254049877636135
21.60376951447688,-432.5934753417969,1.80080246925354,12.04978084564209,9.214103920385242e-05,0.00015800641267560422,-0.0008745166705921292
21.6247655285988,1049.673095703125,-2.7835347652435303,3.8582968711853027,0.00035241286968812346,0.00023244303883984685,-0.00036532286321744323
21.644218782661483,-386.46673583984375,-11.818012237548828,12.006353378295898,-0.0014986861497163773,-6.500861491076648e-05,-0.00679380027577281
21.665362572763115,742.3399658203125,-20.982208251953125,3.6214940547943115,-0.002254211576655507,6.127209053374827e-05,-0.0117426048964262
21.685365763725713,122.9310531616211,-11.772642135620117,11.307075500488281,-0.0021910928189754486,0.00025899961474351585,-0.015914691612124443
21.703861980931833,-266.13140869140625,4.336302280426025,11.361467361450195,-0.002413725247606635,7.272504444699734e-05,-0.01890089176595211
21.72468852903694,885.762451171875,-8.916295051574707,4.576127529144287,-0.002161602722480893,-8.934395737014711e-06,-0.01979578658938408
21.74584945081733,-10.242497444152832,-3.871798515319824,9.605278968811035,-0.0004737316630780697,-0.0004700423451140523,-0.021499071270227432
21.76508613093756,-865.2008056640625,8.13703727722168,11.986485481262207,-0.001763504697009921,-3.437184204813093e-05,-0.020518703386187553
21.784267406677827,210.0400390625,-1.3262879848480225,11.747212409973145,-0.0010277810506522655,-2.2285646991804242e-05,-0.021391065791249275
21.804470299277455,-174.00906372070312,7.6651458740234375,10.507062911987305,-0.0003800179110839963,0.0008480821270495653,-0.02126348577439785
21.825612456072122,-1121.2197265625,6.791697025299072,16.066370010375977,-0.0015093525871634483,0.0001360006572213024,-0.021640179678797722
21.84395934501663,939.555908203125,-6.598459720611572,4.348419189453125,-0.0007523380336351693,0.0010105683468282223,-0.02092290297150612
21.865244509419426,-611.7508544921875,2.843442440032959,11.666274070739746,-0.0007245864253491163,0.0007707278709858656,-0.018702713772654533
21.884390249382704,473.64569091796875,-5.4755120277404785,9.039437294006348,-0.00037500832695513964,0.0007180456886999309,-0.017807604745030403
21.905543997650966,519.7496948242188,-2.6218886375427246,6.7354655265808105,-0.0002291700802743435,0.00015403928409796208,-0.018306216225028038
21.925905127078295,307.2386474609375,-4.276494026184082,8.129925727844238,0.0007914475863799453,-0.000242387322941795,-0.01729683019220829
21.94616110995412,-1615.3011474609375,7.926806926727295,18.944284439086914,0.00031241675605997443,-0.0005335358437150717,-0.016916494816541672
21.963860990828834,540.1920166015625,0.4877782166004181,4.816442489624023,0.0011317250318825245,0.00017751225095707923,-0.016102148219943047
21.984999430715106,453.22283935546875,-2.188570737838745,9.677221298217773,0.0005150279612280428,0.0005025004502385855,-0.014609872363507748
22.00440574658569,425.0043640136719,0.33768942952156067,7.392097473144531,0.0010270214406773448,-0.0004095408949069679,-0.014311596751213074
22.02359052945394,153.6422576904297,-0.677021861076355,8.717574119567871,0.0013897940516471863,-4.7681009164080024e-05,-0.012343605048954487
22.04622544243466,-929.1875610351562,0.9552967548370361,14.913782119750977,0.0007458374602720141,-0.00013304571621119976,-0.012800861150026321
22.0654604799347,632.3413696289062,-0.8684975504875183,3.6783463954925537,0.00117133476305753,8.412005263380706e-05,-0.010533700697124004
22.08518831699621,378.9775695800781,-5.89792013168335,11.198729515075684,0.0007516213227063417,0.0003307143342681229,-0.010051933117210865
22.104172014049254,-455.675537109375,4.105036735534668,12.235640525817871,-0.0002233275445178151,-0.0004045302630402148,-0.009714839980006218
22.12557935609948,1157.1942138671875,-5.436207294464111,3.0666608810424805,0.0012877474073320627,0.0012714050244539976,-0.008875991217792034
22.14454310585279,-1392.5360107421875,-1.199960708618164,17.567951202392578,0.0009251797455362976,-5.9907149989157915e-05,-0.008498884737491608
22.16468968533445,58.870670318603516,0.30263251066207886,6.04630708694458,0.0007515518227592111,0.001112559111788869,-0.008386329747736454
22.184803923242725,1080.4189453125,-5.248262882232666,7.417471885681152,0.0011829258874058723,-0.0001947710698004812,-0.006627465132623911
22.203741424134932,-1236.447998046875,5.491762638092041,16.891986846923828,0.001284408150240779,-0.00014548042963724583,-0.006996633484959602
22.224504313082434,81.96646118164062,-2.0119946002960205,9.366859436035156,0.001007402315735817,0.00016124543617479503,-0.00627727760002017
22.246283649117686,445.5153503417969,2.7673628330230713,7.121318817138672,0.0019164243713021278,0.00022043241187930107,-0.005627297330647707
22.264206896885298,-1535.984375,4.37446403503418,16.977157592773438,0.0011251370888203382,-2.6711670216172934e-05,-0.005352049134671688
22.28380311804358,732.2205200195312,-0.4706113338470459,7.368588447570801,0.0013338036369532347,0.0007061647484079003,-0.004856550600379705
22.307277438114397,79.39539337158203,-0.7634241580963135,9.115904808044434,0.00107705092523247,0.0004784647608175874,-0.005376207642257214
22.32349310896825,-314.8262939453125,-0.7848224639892578,11.926095008850098,0.0006833256920799613,0.0011081350967288017,-0.005434067919850349
22.34573280380573,158.77719116210938,1.7107009887695312,8.585050582885742,-0.00013356748968362808,0.00023171956127043813,-0.005120747722685337
22.36409978044685,645.1973266601562,-0.8080111742019653,3.3125905990600586,0.0005421595415100455,-0.00030545733170583844,-0.003700252389535308
22.38465112436097,266.2578430175781,-2.0405735969543457,12.371153831481934,0.0005963672301732004,0.00011382309457985684,-0.004163297358900309
22.404530964209698,624.6924438476562,-2.052647113800049,6.144079208374023,0.001458466867916286,8.071659976849332e-05,-0.0031934597063809633
22.423637180239893,-890.910400390625,2.67134165763855,14.684131622314453,0.0013119224458932877,0.0002629479276947677,-0.002969687571749091
22.445197077584453,1331.2247314453125,1.8210822343826294,2.120173454284668,0.0010824991622939706,-0.0004967366112396121,-0.0027278061024844646
22.46355862368364,-1500.2122802734375,0.8071900010108948,15.877381324768066,0.00037961918860673904,-0.00033085228642448783,-0.002753090113401413
22.484652590355836,-12.691198348999023,-1.382735013961792,12.254998207092285,0.0009582740603946149,0.0005859417142346501,-0.002068184781819582
22.50456538249273,1495.0997314453125,-3.250786781311035,1.2678736448287964,-0.000653865048661828,1.430163683835417e-05,-0.002329148817807436
22.5245994302677,-614.3695678710938,0.6531446576118469,13.11291217803955,0.0011125419987365603,-0.0003950913669541478,-0.002458730945363641
22.545991203165613,-1395.170654296875,1.234548807144165,17.450132369995117,0.0007707139593549073,9.988644887926057e-05,-0.002248961478471756
22.564488843432628,558.144287109375,0.24181926250457764,4.293546676635742,-0.0005317168543115258,0.00023029858130030334,-0.0008656435529701412
22.58469742734451,1208.406982421875,1.3213109970092773,6.408323764801025,-0.00021490457584150136,-0.00025876774452626705,-0.002472264226526022
22.604150219936855,-645.0452880859375,-0.9525142908096313,13.33288860321045,0.00025117420591413975,-0.00012878072448074818,-0.0014668353833258152
22.625153348199092,87.11421966552734,-1.9467005729675293,8.939007759094238,-0.00010126770939677954,0.00018033328524325043,-0.0009154777508229017
22.644750030129217,-1262.0611572265625,0.7054286599159241,16.545198440551758,0.0008441375684924424,-0.0008935747900977731,-0.0018342328257858753
22.665604750276543,967.7438354492188,-1.6010010242462158,1.5465933084487915,-8.227243961300701e-05,0.0005583330057561398,-0.0014620621223002672
22.684199962182902,107.57544708251953,-1.7524410486221313,13.063030242919922,0.00045010403846390545,0.0002570671495050192,-0.000796365668065846
22.70368799113203,-225.18862915039062,-0.4241722524166107,11.291635513305664,0.0006309503223747015,0.0008097536629065871,-0.0010269194608554244
22.725160034256987,281.611328125,0.8653727769851685,8.12474536895752,-0.0003093322739005089,0.0005869660526514053,-0.0014234127011150122
22.74417580117006,-829.4231567382812,1.2977187633514404,14.344986915588379,-0.00021708017447963357,-0.0008522159187123179,-0.0005657212459482253
22.765583985601552,1292.8421630859375,0.9571720957756042,-0.5446286797523499,-0.00030164324562065303,2.27082782657817e-05,-0.001473145093768835
22.7860294819111,-112.47787475585938,-2.1971046924591064,14.338278770446777,0.0004909670678898692,0.00032016419572755694,-0.001923012430779636
22.805041401996277,-578.5193481445312,1.9259428977966309,12.714689254760742,0.0010070863645523787,-0.0006682742387056351,-0.0010823500342667103
22.8262528575724,-184.3249969482422,3.7356789112091064,10.767036437988281,-0.00018550912500359118,-0.00016413081903010607,-0.0008140349527820945
22.845759281306528,911.4606323242188,-3.200946807861328,4.277536869049072,0.0003680278896354139,0.0001870535925263539,-5.758393672294915e-05
22.864047650364228,-1820.1490478515625,1.2512367963790894,17.435136795043945,-0.0004967626300640404,0.0010753150563687086,-0.0002379419020144269
22.884420481626876,-442.7698669433594,0.4421822428703308,14.49964714050293,0.00034035445423796773,0.0016319300048053265,-2.8191869205329567e-05
22.909993239096366,-384.5995178222656,0.2045385241508484,11.438289642333984,-0.0005448442534543574,0.0002560885332059115,0.00046502845361828804
22.926541040069424,311.1368103027344,-0.7963670492172241,8.661934852600098,0.00047241823631338775,0.00013648977619595826,-0.0009004292078316212
22.94418574811425,-309.6732177734375,-1.0695022344589233,11.540894508361816,-7.025442755548283e-05,-0.0001302380842389539,-0.0011317032622173429
22.965631852275692,912.7152099609375,-0.5561869144439697,3.211160659790039,-0.0003973128623329103,-0.00037736009107902646,0.0002208568766945973
22.985707648447715,814.1420288085938,-0.040586404502391815,8.135316848754883,-1.425446680514142e-05,0.00048816564958542585,-0.00034533871803432703
23.00565208948683,1397.806396484375,0.6765549778938293,2.340190887451172,-0.00026278963196091354,-0.00010702338477130979,0.0004190449835732579
23.025947786285542,-1428.4853515625,-0.8924757242202759,17.17694854736328,0.00019754566892515868,-0.0005112022627145052,0.0008699392783455551
23.044941021245904,92.1851577758789,-0.49930307269096375,9.1300630569458,0.000305303605273366,0.0006291253957897425,8.525958401151001e-05
23.06492307165172,501.8323059082031,1.327389121055603,3.0114901065826416,-0.00022115433239378035,0.0006243539974093437,0.00013374583795666695
23.084019810776226,-1157.02978515625,-2.641526937484741,19.780250549316406,0.0005101002752780914,0.0002196442219428718,0.00037846105988137424
23.105719478684478,494.13885498046875,3.8234286308288574,7.008144378662109,-0.0006865781033411622,0.0005879970849491656,0.0007725631003268063
23.125279200612567,-291.69171142578125,0.32752329111099243,11.046529769897461,0.0003163152141496539,-0.00018427037866786122,0.0016031041741371155
23.14502820756752,-637.3761596679688,-3.03910756111145,13.39457893371582,-0.00014076381921768188,0.0011792569421231747,-0.00046066619688645005
23.166396235465072,465.9327087402344,-0.20786289870738983,5.072893142700195,-0.00022199697559699416,0.0002351722214370966,8.560724381823093e-05
23.184552628197707,94.87255096435547,-3.0451653003692627,12.191986083984375,0.000609751557931304,0.00021010816271882504,0.0005925690638832748
23.2065014912514,583.7822875976562,2.0348339080810547,6.249747276306152,0.00039814907358959317,0.00012696729390881956,-0.0010299228597432375
23.224234945257194,-944.5755004882812,2.809464693069458,14.71047306060791,-2.9089365852996707e-05,-0.0011685410281643271,-7.896097667980939e-05
23.245972854434513,1518.1759033203125,1.7432966232299805,1.4746676683425903,0.0006967268418520689,0.0008282118942588568,0.00016484298976138234
23.266515000606887,-798.7158203125,-4.999642848968506,11.24421215057373,0.00046686531277373433,0.0002950560883618891,-0.0003533039125613868
